%time,field.header.seq,field.header.stamp,field.header.frame_id,field.orientation.x,field.orientation.y,field.orientation.z,field.orientation.w,field.angular_velocity.x,field.angular_velocity.y,field.angular_velocity.z,field.linear_acceleration.x,field.linear_acceleration.y,field.linear_acceleration.z
1573333107483652303,42480,1573333107444136983,imu,0.0,0.0,0.0,0.0,0.00123045712266,0.00166975649538,0.00210818320348,0.188842508078,-0.0509139021778,9.7136662155
1573333107499793110,42481,1573333107460136983,imu,0.0,0.0,0.0,0.0,0.00369119683504,-0.00175772108968,0.00292796435315,0.189725408115,-0.0492462021065,9.74397911679
1573333107515783262,42482,1573333107476136983,imu,0.0,0.0,0.0,0.0,-0.000175754655676,0.00123045712266,-0.00169820536219,0.187665308027,-0.0441450018883,9.72357431592
1573333107531759147,42483,1573333107492136983,imu,0.0,0.0,0.0,0.0,0.00158196643401,-0.000878773278379,0.000175754655676,0.190706408157,-0.0497367021275,9.69777401482
1573333107547898138,42484,1573333107508136983,imu,0.0,0.0,0.0,0.0,0.000527263967027,-0.00202126580673,0.001815316955,0.190510208149,-0.0513063021946,9.72602681602
1573333107563737844,42485,1573333107524136983,imu,0.0,0.0,0.0,0.0,0.00131824718403,0.000175754655676,0.00228376332623,0.191981708212,-0.0430659018421,9.72377051593
1573333107579912180,42486,1573333107540136983,imu,0.0,0.0,0.0,0.0,0.00254870430669,-0.0048336893634,-0.00257662957472,0.191981708212,-0.0488538020897,9.71719781565
1573333107595898208,42487,1573333107556136983,imu,0.0,0.0,0.0,0.0,0.000703018622703,-0.00202126580673,-5.8643062867e-05,0.187469108019,-0.0441450018883,9.70993841534
1573333107611804416,42488,1573333107572136983,imu,0.0,0.0,0.0,0.0,0.000351509311352,-0.00096673787268,0.00257662957472,0.188450108061,-0.0488538020897,9.72377051593
1573333107627783297,42489,1573333107588136983,imu,0.0,0.0,0.0,0.0,-0.000615228561328,0.00202126580673,-0.000527089434102,0.193453208275,-0.0488538020897,9.71857121571
1573333107643837061,42490,1573333107604136983,imu,0.0,0.0,0.0,0.0,0.00237294965101,-0.00184551115106,-0.000702669556853,0.190117808132,-0.0474804020309,9.71553011558
1573333107659800943,42491,1573333107620136983,imu,0.0,0.0,0.0,0.0,-0.000175754655676,0.000175754655676,0.000702669556853,0.188940608082,-0.0451260019302,9.72092561581
1573333107675799404,42492,1573333107636136983,imu,0.0,0.0,0.0,0.0,0.0,0.000790983217004,0.00210818320348,0.18678240799,-0.0480690020561,9.72377051593
1573333107691822032,42493,1573333107652136983,imu,0.0,0.0,0.0,0.0,0.000615228561328,-0.000175754655676,-0.000175754655676,0.184722307901,-0.0432621018505,9.71258711545
1573333107707740138,42494,1573333107668136983,imu,0.0,0.0,0.0,0.0,0.00166975649538,0.00210923040104,0.000527089434102,0.184820407906,-0.0467937020016,9.72171041584
1573333107723822087,42495,1573333107684136983,imu,0.0,0.0,0.0,0.0,0.0125674178119,-0.00272445896236,0.000175754655676,0.187861508036,-0.0499329021358,9.72190661585
1573333107739795275,42496,1573333107700136983,imu,0.0,0.0,0.0,0.0,-0.0047457247691,-0.000527263967027,0.00281085276034,0.188842508078,-0.0361008015442,9.70885931529
1573333107755837387,42497,1573333107716136983,imu,0.0,0.0,0.0,0.0,0.00667920051446,0.00571246264178,-0.000468446371235,0.179228707666,-0.0478728020477,9.71876741571
1573333107771734615,42498,1573333107732136983,imu,0.0,0.0,0.0,0.0,-0.000263719249976,-0.0054487433918,0.00111264739815,0.178345807629,-0.0385533016491,9.72887171615
1573333107787766458,42499,1573333107748136983,imu,0.0,0.0,0.0,0.0,-8.79645943005e-05,-0.00184551115106,0.00076131261972,0.190117808132,-0.0523854022408,9.71239091544
1573333107803767385,42500,1573333107764136983,imu,0.0,0.0,0.0,0.0,0.00184551115106,-0.000351509311352,0.00187378548494,0.183348907843,-0.0383571016407,9.72475151597
1573333107819853845,42501,1573333107780136983,imu,0.0,0.0,0.0,0.0,0.00210923040104,-0.00114249252836,-0.000995535805338,0.184133707876,-0.0462051019764,9.72269141588
1573333107835865462,42502,1573333107796136983,imu,0.0,0.0,0.0,0.0,0.00228498505671,0.000527263967027,0.00257662957472,0.191981708212,-0.046008901968,9.71739401566
1573333107851838434,42503,1573333107812136983,imu,0.0,0.0,0.0,0.0,-0.000527263967027,0.000439473905652,5.8643062867e-05,0.190117808132,-0.0465975019932,9.72151421583
1573333107867858806,42504,1573333107828136983,imu,0.0,0.0,0.0,0.0,0.00202126580673,0.000351509311352,0.00163956229932,0.186193807964,-0.0434583018589,9.71592251559
1573333107883783813,42505,1573333107844136983,imu,0.0,0.0,0.0,0.0,-0.000878773278379,-0.00158196643401,0.000234223185618,0.188646308069,-0.0467937020016,9.72847931613
1573333107899777539,42506,1573333107860136983,imu,0.0,0.0,0.0,0.0,0.00202126580673,0.000878773278379,0.00146398217657,0.189333008099,-0.0499329021358,9.71700161564
1573333107915728074,42507,1573333107876136983,imu,0.0,0.0,0.0,0.0,0.00290021361804,0.00149400183971,-5.8643062867e-05,0.188450108061,-0.046008901968,9.71199851542
1573333107931773720,42508,1573333107892136983,imu,0.0,0.0,0.0,0.0,0.000527263967027,-0.000703018622703,-0.00240087491904,0.191196908178,-0.0516006022072,9.71288141546
1573333107947768678,42509,1573333107908136983,imu,0.0,0.0,0.0,0.0,0.00307596827371,-0.00377898689642,0.000468446371235,0.189921608124,-0.0507177021694,9.73220711629
1573333107963762689,42510,1573333107924136983,imu,0.0,0.0,0.0,0.0,0.00316375833509,0.00281224902374,-0.00404043721837,0.189529208107,-0.0465975019932,9.72023891578
1573333107979803368,42511,1573333107940136983,imu,0.0,0.0,0.0,0.0,-0.000790983217004,-0.00114249252836,-0.00263509810466,0.187076708002,-0.046008901968,9.725438216
1573333107995771229,42512,1573333107956136983,imu,0.0,0.0,0.0,0.0,0.00131824718403,0.00272445896236,-0.00146398217657,0.187469108019,-0.0517968022156,9.73515011642
1573333108011788559,42513,1573333107972136983,imu,0.0,0.0,0.0,0.0,-0.000263719249976,-0.00184551115106,0.000995535805338,0.188450108061,-0.041496301775,9.68845451442
1573333108027774977,42514,1573333107988136983,imu,0.0,0.0,0.0,0.0,0.00131824718403,-8.79645943005e-05,-0.00163956229932,0.187861508036,-0.0548379023457,9.74211521671
1573333108043789696,42515,1573333108004136983,imu,0.0,0.0,0.0,0.0,-0.00123045712266,-8.79645943005e-05,0.000702669556853,0.185212807922,-0.0413982017708,9.6926728146
1573333108059804791,42516,1573333108020136983,imu,0.0,0.0,0.0,0.0,0.00202126580673,-0.000615228561328,0.000409977841293,0.185016607914,-0.0482652020645,9.75526061728
1573333108075755282,42517,1573333108036136983,imu,0.0,0.0,0.0,0.0,-0.00166975649538,0.000615228561328,0.000468446371235,0.188646308069,-0.0451260019302,9.72455531596
1573333108091830851,42518,1573333108052136983,imu,0.0,0.0,0.0,0.0,-0.000615228561328,-0.000263719249976,-0.000819781149662,0.193453208275,-0.0394362016869,9.6646162134
1573333108107815145,42519,1573333108068136983,imu,0.0,0.0,0.0,0.0,-0.00290021361804,-0.000439473905652,-0.000585557964044,0.194826608334,-0.0533664022827,9.7394665166
1573333108123761671,42520,1573333108084136983,imu,0.0,0.0,0.0,0.0,-0.00202126580673,0.000703018622703,-0.000878424212529,0.191196908178,-0.0456165019512,9.72043511579
1573333108139754891,42521,1573333108100136983,imu,0.0,0.0,0.0,0.0,0.00123045712266,-0.00123045712266,0.001815316955,0.193060808258,-0.0525816022491,9.72288761589
1573333108155821810,42522,1573333108116136983,imu,0.0,0.0,0.0,0.0,0.00175772108968,-0.00193347574536,0.00146398217657,0.195120908346,-0.0499329021358,9.71857121571
1573333108171813160,42523,1573333108132136983,imu,0.0,0.0,0.0,0.0,0.00210923040104,0.000351509311352,0.000527089434102,0.189725408115,-0.0482652020645,9.71798261568
1573333108187776846,42524,1573333108148136983,imu,0.0,0.0,0.0,0.0,0.00149400183971,-0.00114249252836,0.00163956229932,0.189333008099,-0.0495405021191,9.72377051593
1573333108203806710,42525,1573333108164136983,imu,0.0,0.0,0.0,0.0,0.000175754655676,-0.00149400183971,0.000995535805338,0.184820407906,-0.0454203019428,9.70267901503
1573333108219835632,42526,1573333108180136983,imu,0.0,0.0,0.0,0.0,-0.00175772108968,-0.00149400183971,0.00146398217657,0.184329907885,-0.0501291021442,9.73181471627
1573333108235832931,42527,1573333108196136983,imu,0.0,0.0,0.0,0.0,0.00158196643401,-0.00105452793405,-0.000117111592809,0.191393108187,-0.0447336019135,9.72190661585
1573333108251843625,42528,1573333108212136983,imu,0.0,0.0,0.0,0.0,-0.000615228561328,0.00149400183971,-0.00304507594595,0.189333008099,-0.0492462021065,9.70267901503
1573333108267768482,42529,1573333108228136983,imu,0.0,0.0,0.0,0.0,0.00105452793405,8.79645943005e-05,0.00076131261972,0.188842508078,-0.0484614020729,9.72377051593
1573333108283803372,42530,1573333108244136983,imu,0.0,0.0,0.0,0.0,0.00184551115106,-0.00184551115106,-0.00316218753876,0.18913680809,-0.0507177021694,9.72043511579
1573333108299799128,42531,1573333108260136983,imu,0.0,0.0,0.0,0.0,0.0118643991892,0.0278592945862,-0.00456752665247,0.185801407948,-0.0486576020813,9.71307761547
1573333108315804189,42532,1573333108276136983,imu,0.0,0.0,0.0,0.0,0.00632769120311,0.0265410474022,-0.00409908028123,0.190510208149,-0.0499329021358,9.72377051593
1573333108331785220,42533,1573333108292136983,imu,0.0,0.0,0.0,0.0,-0.00852471166552,0.018104125798,0.00649995520028,0.18678240799,-0.0293319012547,9.70827071527
1573333108347842873,42534,1573333108308136983,imu,0.0,0.0,0.0,0.0,0.00632769120311,0.0243440269397,-0.00562153098775,0.188842508078,-0.0535626022911,9.71798261568
1573333108363859677,42535,1573333108324136983,imu,0.0,0.0,0.0,0.0,-0.00421846080207,-0.00606397195313,-0.000878424212529,0.182956507826,-0.0465975019932,9.73387481636
1573333108379840453,42536,1573333108340136983,imu,0.0,0.0,0.0,0.0,-0.00193347574536,-0.000175754655676,-0.00199089707775,0.18678240799,-0.0377685016155,9.70581821516
1573333108395796416,42537,1573333108356136983,imu,0.0,0.0,0.0,0.0,0.00149400183971,0.000175754655676,-0.00240087491904,0.188646308069,-0.051993002224,9.72602681602
1573333108411787130,42538,1573333108372136983,imu,0.0,0.0,0.0,0.0,0.000527263967027,0.000527263967027,-0.00111264739815,0.186586207981,-0.0368856015778,9.71033081535
1573333108427878425,42539,1573333108388136983,imu,0.0,0.0,0.0,0.0,0.00131824718403,-0.000527263967027,-0.000175754655676,0.18727290801,-0.0484614020729,9.72171041584
1573333108443817645,42540,1573333108404136983,imu,0.0,0.0,0.0,0.0,0.00149400183971,0.000439473905652,-0.000585557964044,0.189725408115,-0.0484614020729,9.73201091628
1573333108459893580,42541,1573333108420136983,imu,0.0,0.0,0.0,0.0,-0.000615228561328,8.79645943005e-05,0.00105400433528,0.188450108061,-0.0443412018967,9.69679301477
1573333108475819389,42542,1573333108436136983,imu,0.0,0.0,0.0,0.0,0.00140621177833,0.00351544217937,-0.000234223185618,0.18727290801,-0.0523854022408,9.74044751664
1573333108491783707,42543,1573333108452136983,imu,0.0,0.0,0.0,0.0,-0.000615228561328,-0.00131824718403,-0.00117111592809,0.183741307859,-0.0480690020561,9.7138624155
1573333108507785781,42544,1573333108468136983,imu,0.0,0.0,0.0,0.0,0.000439473905652,-0.00105452793405,0.000292866248485,0.18727290801,-0.0535626022911,9.71700161564
1573333108523799714,42545,1573333108484136983,imu,0.0,0.0,0.0,0.0,0.00149400183971,-0.00158196643401,0.00316218753876,0.18727290801,-0.0471861020184,9.72563441601
1573333108539804329,42546,1573333108500136983,imu,0.0,0.0,0.0,0.0,0.000263719249976,0.000263719249976,-0.000351334778426,0.186586207981,-0.0511101021862,9.71052701536
1573333108555729539,42547,1573333108516136983,imu,0.0,0.0,0.0,0.0,-0.00395474155209,-0.00228498505671,0.00281085276034,0.191196908178,-0.0503253021526,9.72396671594
1573333108571815104,42548,1573333108532136983,imu,0.0,0.0,0.0,0.0,8.79645943005e-05,0.000527263967027,0.000878424212529,0.192570308237,-0.0435564018631,9.70954601532
1573333108587825122,42549,1573333108548136983,imu,0.0,0.0,0.0,0.0,0.0,0.00114249252836,-0.000468446371235,0.184526107893,-0.0437526018715,9.72004271577
1573333108603779301,42550,1573333108564136983,imu,0.0,0.0,0.0,0.0,0.000703018622703,-0.000175754655676,0.00076131261972,0.18678240799,-0.0529740022659,9.71965031575
1573333108619878646,42551,1573333108580136983,imu,0.0,0.0,0.0,0.0,0.0,-0.000351509311352,-0.000409977841293,0.185801407948,-0.0420849018002,9.71631491561
1573333108635961281,42552,1573333108596136983,imu,0.0,0.0,0.0,0.0,0.000790983217004,0.000175754655676,-0.00175667389213,0.18678240799,-0.0451260019302,9.71945411574
1573333108651911221,42553,1573333108612136983,imu,0.0,0.0,0.0,0.0,-0.00237294965101,-0.000615228561328,-0.00158109376938,0.190510208149,-0.0507177021694,9.72092561581
1573333108667901127,42554,1573333108628136983,imu,0.0,0.0,0.0,0.0,0.00140621177833,-0.00237294965101,-0.00076131261972,0.191196908178,-0.051502502203,9.7183750157
1573333108683911972,42555,1573333108644136983,imu,0.0,0.0,0.0,0.0,0.00202126580673,0.000615228561328,0.00158109376938,0.185016607914,-0.0478728020477,9.71817881569
1573333108699819233,42556,1573333108660136983,imu,0.0,0.0,0.0,0.0,0.00175772108968,-0.000527263967027,-0.00111264739815,0.186193807964,-0.0443412018967,9.71798261568
1573333108715808749,42557,1573333108676136983,imu,0.0,0.0,0.0,0.0,0.00193347574536,-0.000175754655676,0.000117111592809,0.183741307859,-0.0434583018589,9.72249521587
1573333108731808138,42558,1573333108692136983,imu,0.0,0.0,0.0,0.0,0.00228498505671,-0.000439473905652,0.000878424212529,0.191196908178,-0.0465975019932,9.71651111562
1573333108747865149,42559,1573333108708136983,imu,0.0,0.0,0.0,0.0,0.00131824718403,0.00105452793405,0.00111264739815,0.193453208275,-0.0492462021065,9.70601441517
1573333108763856579,42560,1573333108724136983,imu,0.0,0.0,0.0,0.0,-0.00114249252836,-0.00184551115106,0.00134687058376,0.188646308069,-0.0492462021065,9.73220711629
1573333108779829933,42561,1573333108740136983,imu,0.0,0.0,0.0,0.0,0.00114249252836,-0.00219719499534,-0.000995535805338,0.18678240799,-0.0428697018337,9.71101751538
1573333108795762036,42562,1573333108756136983,imu,0.0,0.0,0.0,0.0,0.00149400183971,-0.00298800367941,-0.00105400433528,0.18727290801,-0.0462051019764,9.71121371539
1573333108811800941,42563,1573333108772136983,imu,0.0,0.0,0.0,0.0,0.000175754655676,-0.00254870430669,-0.00117111592809,0.18913680809,-0.055034102354,9.73161851626
1573333108827791143,42564,1573333108788136983,imu,0.0,0.0,0.0,0.0,0.00228498505671,8.79645943005e-05,0.000292866248485,0.190510208149,-0.0454203019428,9.70709351521
1573333108843823493,42565,1573333108804136983,imu,0.0,0.0,0.0,0.0,-0.000878773278379,8.79645943005e-05,0.000117111592809,0.191393108187,-0.0465975019932,9.72602681602
1573333108859827211,42566,1573333108820136983,imu,0.0,0.0,0.0,0.0,0.000527263967027,-0.00360323224074,-0.000351334778426,0.184722307901,-0.0447336019135,9.71739401566
1573333108875817514,42567,1573333108836136983,imu,0.0,0.0,0.0,0.0,-0.000615228561328,0.000615228561328,-0.00158109376938,0.185605207939,-0.0467937020016,9.71533391557
1573333108891814943,42568,1573333108852136983,imu,0.0,0.0,0.0,0.0,-0.00175772108968,-0.00114249252836,-0.00134687058376,0.18678240799,-0.041005801754,9.68786591439
1573333108907813434,42569,1573333108868136983,imu,0.0,0.0,0.0,0.0,-0.00158196643401,-0.000263719249976,0.00076131261972,0.189333008099,-0.070533903017,9.81588641987
1573333108923865921,42570,1573333108884136983,imu,0.0,0.0,0.0,0.0,0.00281224902374,0.00404270614639,-0.00251798651185,0.187665308027,-0.035021701498,9.67717301394
1573333108939843148,42571,1573333108900136983,imu,0.0,0.0,0.0,0.0,0.00281224902374,-0.000263719249976,-0.00111264739815,0.189529208107,-0.0348255014896,9.65882831315
1573333108955801336,42572,1573333108916136983,imu,0.0,0.0,0.0,0.0,-0.00202126580673,0.000703018622703,-0.000468446371235,0.185997607956,-0.0676890028954,9.79391201893
1573333108971846100,42573,1573333108932136983,imu,0.0,0.0,0.0,0.0,0.000175754655676,-8.79645943005e-05,0.000234223185618,0.190314008141,-0.0297243012714,9.67442621382
1573333108987869238,42574,1573333108948136983,imu,0.0,0.0,0.0,0.0,0.00536095333043,-0.00158196643401,-0.00175667389213,0.189333008099,-0.051502502203,9.74437151681
1573333109003755255,42575,1573333108964136983,imu,0.0,0.0,0.0,0.0,0.00158196643401,0.000439473905652,0.00175667389213,0.183741307859,-0.0428697018337,9.70248281502
1573333109019905106,42576,1573333108980136983,imu,0.0,0.0,0.0,0.0,0.000527263967027,-0.000527263967027,0.000644201026911,0.190314008141,-0.0575847024632,9.74476391683
1573333109035948882,42577,1573333108996136983,imu,0.0,0.0,0.0,0.0,-0.00131824718403,-0.00131824718403,0.00386485709562,0.193845608292,-0.0389457016659,9.69326141462
1573333109051831746,42578,1573333109012136983,imu,0.0,0.0,0.0,0.0,-0.000615228561328,0.000703018622703,0.000936892742471,0.185016607914,-0.055524602375,9.70562201515
1573333109067813650,42579,1573333109028136983,imu,0.0,0.0,0.0,0.0,-0.00140621177833,0.000527263967027,-0.001815316955,0.184820407906,-0.0511101021862,9.7557511173
1573333109083867339,42580,1573333109044136983,imu,0.0,0.0,0.0,0.0,-0.000439473905652,8.79645943005e-05,-0.000819781149662,0.185212807922,-0.0426735018253,9.70728971522
1573333109099832047,42581,1573333109060136983,imu,0.0,0.0,0.0,0.0,0.00184551115106,-0.00193347574536,-0.00199089707775,0.187469108019,-0.0499329021358,9.7043467151
1573333109115893268,42582,1573333109076136983,imu,0.0,0.0,0.0,0.0,0.00193347574536,-0.00149400183971,-0.00363063391,0.185997607956,-0.0548379023457,9.75035561707
1573333109131793824,42583,1573333109092136983,imu,0.0,0.0,0.0,0.0,0.000878773278379,-0.00114249252836,-0.000234223185618,0.185212807922,-0.0413982017708,9.70003031491
1573333109147857345,42584,1573333109108136983,imu,0.0,0.0,0.0,0.0,0.000263719249976,-0.000263719249976,-0.000878424212529,0.183348907843,-0.050521502161,9.72681161606
1573333109163832814,42585,1573333109124136983,imu,0.0,0.0,0.0,0.0,-0.00158196643401,-0.00123045712266,0.000234223185618,0.183937507868,-0.0447336019135,9.71464721554
1573333109179824184,42586,1573333109140136983,imu,0.0,0.0,0.0,0.0,-0.00105452793405,0.00114249252836,0.000585557964044,0.185212807922,-0.0416925017834,9.71464721554
1573333109195825301,42587,1573333109156136983,imu,0.0,0.0,0.0,0.0,0.000263719249976,-0.00105452793405,5.8643062867e-05,0.182760307817,-0.0426735018253,9.71690351563
1573333109211837910,42588,1573333109172136983,imu,0.0,0.0,0.0,0.0,8.79645943005e-05,0.000263719249976,-0.000819781149662,0.187665308027,-0.0484614020729,9.72229901587
1573333109227901512,42589,1573333109188136983,imu,0.0,0.0,0.0,0.0,0.00175772108968,-0.00166975649538,-0.00146398217657,0.188842508078,-0.0437526018715,9.7231819159
1573333109243879140,42590,1573333109204136983,imu,0.0,0.0,0.0,0.0,0.0,-0.000527263967027,-0.00275220969747,0.185409007931,-0.0480690020561,9.71405861551
1573333109259804684,42591,1573333109220136983,imu,0.0,0.0,0.0,0.0,-8.79645943005e-05,0.000175754655676,-0.000468446371235,0.18913680809,-0.051993002224,9.71690351563
1573333109275839734,42592,1573333109236136983,imu,0.0,0.0,0.0,0.0,-0.000263719249976,-0.00131824718403,0.00275220969747,0.190510208149,-0.0492462021065,9.72396671594
1573333109291802338,42593,1573333109252136983,imu,0.0,0.0,0.0,0.0,0.00149400183971,-0.00166975649538,-0.000175754655676,0.180700207729,-0.0445374019051,9.72337811591
1573333109307803646,42594,1573333109268136983,imu,0.0,0.0,0.0,0.0,-8.79645943005e-05,0.000878773278379,0.000234223185618,0.18678240799,-0.0443412018967,9.7138624155
1573333109323788321,42595,1573333109284136983,imu,0.0,0.0,0.0,0.0,0.00149400183971,-0.00105452793405,0.00380621403275,0.188646308069,-0.0471861020184,9.7231819159
1573333109339814376,42596,1573333109300136983,imu,0.0,0.0,0.0,0.0,-0.00158196643401,0.00307596827371,0.00245951798191,0.190804508162,-0.0451260019302,9.71876741571
1573333109355855491,42597,1573333109316136983,imu,0.0,0.0,0.0,0.0,-0.000351509311352,-0.000527263967027,-0.000936892742471,0.189333008099,-0.0490500020981,9.71631491561
1573333109371843703,42598,1573333109332136983,imu,0.0,0.0,0.0,0.0,8.79645943005e-05,0.000175754655676,0.00245951798191,0.18913680809,-0.0471861020184,9.72896981615
1573333109387819954,42599,1573333109348136983,imu,0.0,0.0,0.0,0.0,-0.00307596827371,0.000175754655676,0.00222529479629,0.186880507994,-0.0447336019135,9.71180231542
1573333109403873111,42600,1573333109364136983,imu,0.0,0.0,0.0,0.0,0.000878773278379,-0.000351509311352,0.00076131261972,0.189921608124,-0.0529740022659,9.72092561581
1573333109419858663,42601,1573333109380136983,imu,0.0,0.0,0.0,0.0,8.79645943005e-05,-0.000615228561328,0.000995535805338,0.191196908178,-0.0486576020813,9.71327381548
1573333109435850619,42602,1573333109396136983,imu,0.0,0.0,0.0,0.0,-8.79645943005e-05,0.00246073971239,-0.000585557964044,0.188940608082,-0.0509139021778,9.73819121655
1573333109451911174,42603,1573333109412136983,imu,0.0,0.0,0.0,0.0,-0.00175772108968,0.000790983217004,0.0,0.183545107851,-0.0471861020184,9.71072321537
1573333109467802739,42604,1573333109428136983,imu,0.0,0.0,0.0,0.0,-0.00149400183971,-0.00175772108968,0.000644201026911,0.184329907885,-0.0494424021149,9.71121371539
1573333109483948575,42605,1573333109444136983,imu,0.0,0.0,0.0,0.0,0.00123045712266,0.00096673787268,0.000468446371235,0.186586207981,-0.0529740022659,9.74378291678
1573333109499828172,42606,1573333109460136983,imu,0.0,0.0,0.0,0.0,-0.00193347574536,-0.000527263967027,0.00163956229932,0.18678240799,-0.0447336019135,9.6996379149
1573333109515841428,42607,1573333109476136983,imu,0.0,0.0,0.0,0.0,-0.000527263967027,-0.00166975649538,-0.00105400433528,0.190117808132,-0.0490500020981,9.7324033163
1573333109531853586,42608,1573333109492136983,imu,0.0,0.0,0.0,0.0,0.00114249252836,-0.000703018622703,-0.000995535805338,0.185212807922,-0.0458127019596,9.72131801582
1573333109547948029,42609,1573333109508136983,imu,0.0,0.0,0.0,0.0,0.00219719499534,-0.000263719249976,0.000702669556853,0.185801407948,-0.0503253021526,9.72337811591
1573333109563787488,42610,1573333109524136983,imu,0.0,0.0,0.0,0.0,0.00325172292939,-0.00237294965101,-0.000585557964044,0.185605207939,-0.0471861020184,9.7136662155
1573333109579791167,42611,1573333109540136983,imu,0.0,0.0,0.0,0.0,0.00184551115106,-0.00140621177833,0.0012882275209,0.18913680809,-0.0503253021526,9.71670731563
1573333109595881485,42612,1573333109556136983,imu,0.0,0.0,0.0,0.0,0.000263719249976,0.000703018622703,0.000234223185618,0.187861508036,-0.0480690020561,9.73279571631
1573333109611854844,42613,1573333109572136983,imu,0.0,0.0,0.0,0.0,0.000703018622703,0.00114249252836,-0.00134687058376,0.188253908052,-0.0473823020267,9.70150181498
1573333109627847672,42614,1573333109588136983,imu,0.0,0.0,0.0,0.0,0.00254870430669,-0.000615228561328,0.001815316955,0.187076708002,-0.0527778022575,9.72337811591
1573333109643839864,42615,1573333109604136983,imu,0.0,0.0,0.0,0.0,0.000263719249976,0.000790983217004,0.001815316955,0.183152707834,-0.0418887017918,9.72416291595
1573333109659869257,42616,1573333109620136983,imu,0.0,0.0,0.0,0.0,0.000263719249976,0.00105452793405,-0.000351334778426,0.189921608124,-0.0488538020897,9.71327381548
1573333109675851621,42617,1573333109636136983,imu,0.0,0.0,0.0,0.0,-0.00158196643401,0.000351509311352,0.00146398217657,0.18678240799,-0.0501291021442,9.72171041584
1573333109691774117,42618,1573333109652136983,imu,0.0,0.0,0.0,0.0,0.00149400183971,-0.00210923040104,0.000292866248485,0.188450108061,-0.0492462021065,9.71719781565
1573333109707856918,42619,1573333109668136983,imu,0.0,0.0,0.0,0.0,0.0,0.000615228561328,0.001815316955,0.186586207981,-0.0501291021442,9.72337811591
1573333109723830517,42620,1573333109684136983,imu,0.0,0.0,0.0,0.0,-0.000175754655676,-0.000703018622703,0.00134687058376,0.18727290801,-0.0494424021149,9.72190661585
1573333109739833935,42621,1573333109700136983,imu,0.0,0.0,0.0,0.0,0.00114249252836,0.000615228561328,-0.000995535805338,0.188253908052,-0.0456165019512,9.71513771556
1573333109755796083,42622,1573333109716136983,imu,0.0,0.0,0.0,0.0,0.000790983217004,-0.00105452793405,0.001815316955,0.188646308069,-0.0476766020393,9.7183750157
1573333109771840079,42623,1573333109732136983,imu,0.0,0.0,0.0,0.0,0.00228498505671,-0.00246073971239,-0.00163956229932,0.187861508036,-0.0478728020477,9.72063131579
1573333109787797952,42624,1573333109748136983,imu,0.0,0.0,0.0,0.0,-0.00219719499534,0.00105452793405,0.0023424063891,0.188253908052,-0.0497367021275,9.71327381548
1573333109803859294,42625,1573333109764136983,imu,0.0,0.0,0.0,0.0,-0.00254870430669,0.00281224902374,-0.000702669556853,0.191785508204,-0.0509139021778,9.72249521587
1573333109819854031,42626,1573333109780136983,imu,0.0,0.0,0.0,0.0,0.00096673787268,0.00131824718403,0.00122975899096,0.189725408115,-0.0449298019218,9.72131801582
1573333109835931480,42627,1573333109796136983,imu,0.0,0.0,0.0,0.0,0.00123045712266,0.000527263967027,-0.00216665173343,0.192766508245,-0.0516006022072,9.71072321537
1573333109851919257,42628,1573333109812136983,imu,0.0,0.0,0.0,0.0,-0.000615228561328,0.00149400183971,0.000527089434102,0.186880507994,-0.0544455023289,9.72455531596
1573333109867760651,42629,1573333109828136983,imu,0.0,0.0,0.0,0.0,-0.00219719499534,0.000439473905652,0.00076131261972,0.188842508078,-0.0497367021275,9.72171041584
1573333109883850719,42630,1573333109844136983,imu,0.0,0.0,0.0,0.0,-0.000351509311352,-0.00123045712266,0.00076131261972,0.187076708002,-0.0503253021526,9.71817881569
1573333109899828327,42631,1573333109860136983,imu,0.0,0.0,0.0,0.0,0.00281224902374,0.000878773278379,0.00122975899096,0.185605207939,-0.0529740022659,9.71513771556
1573333109915836882,42632,1573333109876136983,imu,0.0,0.0,0.0,0.0,0.00131824718403,0.000790983217004,-0.00140533911371,0.187076708002,-0.0497367021275,9.72583061602
1573333109931937268,42633,1573333109892136983,imu,0.0,0.0,0.0,0.0,-0.00114249252836,-0.00298800367941,-0.000234223185618,0.188057708044,-0.0507177021694,9.72063131579
1573333109947931139,42634,1573333109908136983,imu,0.0,0.0,0.0,0.0,-0.000790983217004,0.000615228561328,0.00263509810466,0.18727290801,-0.0478728020477,9.71199851542
1573333109963761452,42635,1573333109924136983,imu,0.0,0.0,0.0,0.0,-0.00131824718403,0.000703018622703,0.00111264739815,0.187076708002,-0.0437526018715,9.72435911595
1573333109979895662,42636,1573333109940136983,imu,0.0,0.0,0.0,0.0,-0.000175754655676,0.00202126580673,0.000585557964044,0.185409007931,-0.0412020017624,9.72112181581
1573333109995924358,42637,1573333109956136983,imu,0.0,0.0,0.0,0.0,-0.00158196643401,0.0,0.000819781149662,0.182956507826,-0.0422811018085,9.71778641567
1573333110011929049,42638,1573333109972136983,imu,0.0,0.0,0.0,0.0,-0.00369119683504,0.00131824718403,-0.000234223185618,0.18913680809,-0.0473823020267,9.71984651576
1573333110027823400,42639,1573333109988136983,imu,0.0,0.0,0.0,0.0,0.000439473905652,0.00298800367941,-0.000995535805338,0.187469108019,-0.0488538020897,9.71945411574
1573333110043947843,42640,1573333110004136983,imu,0.0,0.0,0.0,0.0,-0.00166975649538,0.000175754655676,0.0023424063891,0.188940608082,-0.0476766020393,9.71670731563
1573333110059938456,42641,1573333110020136983,imu,0.0,0.0,0.0,0.0,0.000878773278379,0.000790983217004,-0.00245951798191,0.187076708002,-0.0451260019302,9.71965031575
1573333110075833759,42642,1573333110036136983,imu,0.0,0.0,0.0,0.0,-0.00377898689642,0.00237294965101,0.000995535805338,0.186880507994,-0.0478728020477,9.72337811591
1573333110091886761,42643,1573333110052136983,imu,0.0,0.0,0.0,0.0,0.000263719249976,-0.00158196643401,-0.00076131261972,0.184722307901,-0.0486576020813,9.71906171573
1573333110107927034,42644,1573333110068136983,imu,0.0,0.0,0.0,0.0,-0.00114249252836,-0.000263719249976,0.00105400433528,0.185997607956,-0.041005801754,9.71651111562
1573333110123869552,42645,1573333110084136983,imu,0.0,0.0,0.0,0.0,0.000703018622703,0.00105452793405,0.00163956229932,0.186880507994,-0.0443412018967,9.72435911595
1573333110139909399,42646,1573333110100136983,imu,0.0,0.0,0.0,0.0,0.00254870430669,8.79645943005e-05,-0.000995535805338,0.188940608082,-0.0484614020729,9.72151421583
1573333110155812986,42647,1573333110116136983,imu,0.0,0.0,0.0,0.0,-0.00096673787268,-0.000615228561328,0.00122975899096,0.191393108187,-0.0497367021275,9.71484341555
1573333110171791862,42648,1573333110132136983,imu,0.0,0.0,0.0,0.0,-0.00281224902374,0.000263719249976,0.000292866248485,0.185605207939,-0.0471861020184,9.72583061602
1573333110187867296,42649,1573333110148136983,imu,0.0,0.0,0.0,0.0,0.000527263967027,0.000615228561328,0.000995535805338,0.184329907885,-0.0445374019051,9.72269141588
1573333110203861448,42650,1573333110164136983,imu,0.0,0.0,0.0,0.0,0.000878773278379,-0.00246073971239,5.8643062867e-05,0.186880507994,-0.0480690020561,9.71484341555
1573333110219890334,42651,1573333110180136983,imu,0.0,0.0,0.0,0.0,-0.000439473905652,-0.00114249252836,-0.00169820536219,0.186390007973,-0.0464013019848,9.72455531596
1573333110235902748,42652,1573333110196136983,imu,0.0,0.0,0.0,0.0,-0.000439473905652,-0.00263649436806,-0.00281085276034,0.18727290801,-0.0456165019512,9.7161187156
1573333110251870494,42653,1573333110212136983,imu,0.0,0.0,0.0,0.0,0.000351509311352,0.000703018622703,-0.000527089434102,0.193453208275,-0.0521892022324,9.71631491561
1573333110267862234,42654,1573333110228136983,imu,0.0,0.0,0.0,0.0,-0.000263719249976,-0.00096673787268,-0.00327929913157,0.189333008099,-0.0413982017708,9.71739401566
1573333110283844930,42655,1573333110244136983,imu,0.0,0.0,0.0,0.0,0.00333968752369,-0.000615228561328,-0.00322065606871,0.188842508078,-0.0458127019596,9.72435911595
1573333110299827965,42656,1573333110260136983,imu,0.0,0.0,0.0,0.0,0.000527263967027,-0.00123045712266,-0.00304507594595,0.190314008141,-0.0517968022156,9.72396671594
1573333110315814890,42657,1573333110276136983,imu,0.0,0.0,0.0,0.0,-0.00123045712266,0.00184551115106,0.000819781149662,0.183152707834,-0.0437526018715,9.7138624155
1573333110331834631,42658,1573333110292136983,imu,0.0,0.0,0.0,0.0,-0.000263719249976,0.000263719249976,-0.000527089434102,0.186880507994,-0.0465975019932,9.72210281586
1573333110347827835,42659,1573333110308136983,imu,0.0,0.0,0.0,0.0,0.000527263967027,-0.00158196643401,-0.00409908028123,0.189921608124,-0.04698990201,9.71925791574
1573333110363794388,42660,1573333110324136983,imu,0.0,0.0,0.0,0.0,-0.000351509311352,-0.00325172292939,0.000644201026911,0.18678240799,-0.0467937020016,9.71513771556
1573333110379796853,42661,1573333110340136983,imu,0.0,0.0,0.0,0.0,0.000175754655676,-0.00193347574536,-0.00163956229932,0.188940608082,-0.0503253021526,9.72377051593
1573333110395920845,42662,1573333110356136983,imu,0.0,0.0,0.0,0.0,0.00123045712266,-0.000527263967027,0.000468446371235,0.189725408115,-0.0494424021149,9.71670731563
1573333110411778391,42663,1573333110372136983,imu,0.0,0.0,0.0,0.0,0.00149400183971,-0.00149400183971,-0.000468446371235,0.186390007973,-0.0462051019764,9.71690351563
1573333110427898728,42664,1573333110388136983,imu,0.0,0.0,0.0,0.0,0.000615228561328,0.000263719249976,0.000702669556853,0.186390007973,-0.0478728020477,9.71798261568
1573333110443809558,42665,1573333110404136983,imu,0.0,0.0,0.0,0.0,0.000263719249976,-0.00123045712266,-0.000292866248485,0.189921608124,-0.0441450018883,9.72171041584
1573333110459790253,42666,1573333110420136983,imu,0.0,0.0,0.0,0.0,-0.000615228561328,-0.00184551115106,0.000702669556853,0.188253908052,-0.0480690020561,9.71670731563
1573333110475765310,42667,1573333110436136983,imu,0.0,0.0,0.0,0.0,-8.79645943005e-05,0.00096673787268,-0.00357199084713,0.182073607788,-0.0473823020267,9.71906171573
1573333110491822828,42668,1573333110452136983,imu,0.0,0.0,0.0,0.0,0.0047457247691,-0.000703018622703,-0.000585557964044,0.185801407948,-0.0434583018589,9.71925791574
1573333110507819099,42669,1573333110468136983,imu,0.0,0.0,0.0,0.0,0.00316375833509,-8.79645943005e-05,-0.000234223185618,0.18913680809,-0.0484614020729,9.71965031575
1573333110523836359,42670,1573333110484136983,imu,0.0,0.0,0.0,0.0,0.0,-0.000615228561328,-0.00450905812253,0.186586207981,-0.0473823020267,9.7161187156
1573333110539814825,42671,1573333110500136983,imu,0.0,0.0,0.0,0.0,-0.00123045712266,0.000527263967027,-0.000585557964044,0.183741307859,-0.0453222019386,9.72112181581
1573333110555876387,42672,1573333110516136983,imu,0.0,0.0,0.0,0.0,0.000527263967027,-0.000527263967027,0.00140533911371,0.183545107851,-0.0478728020477,9.72377051593
1573333110571833437,42673,1573333110532136983,imu,0.0,0.0,0.0,0.0,-0.000175754655676,0.000615228561328,0.000819781149662,0.187665308027,-0.0464013019848,9.71592251559
1573333110587835076,42674,1573333110548136983,imu,0.0,0.0,0.0,0.0,-0.00272445896236,0.00149400183971,-0.000351334778426,0.189725408115,-0.0494424021149,9.71798261568
1573333110603863682,42675,1573333110564136983,imu,0.0,0.0,0.0,0.0,-8.79645943005e-05,0.0,5.8643062867e-05,0.188842508078,-0.0513063021946,9.71445101553
1573333110619880230,42676,1573333110580136983,imu,0.0,0.0,0.0,0.0,-0.000527263967027,-0.00166975649538,-0.000995535805338,0.18913680809,-0.0474804020309,9.71651111562
1573333110635872122,42677,1573333110596136983,imu,0.0,0.0,0.0,0.0,0.00193347574536,0.000351509311352,0.00316218753876,0.184820407906,-0.0441450018883,9.71945411574
1573333110651838604,42678,1573333110612136983,imu,0.0,0.0,0.0,0.0,0.000615228561328,0.00175772108968,0.00111264739815,0.187861508036,-0.0480690020561,9.71700161564
1573333110667819365,42679,1573333110628136983,imu,0.0,0.0,0.0,0.0,0.000175754655676,0.00193347574536,0.000175754655676,0.188940608082,-0.0473823020267,9.71484341555
1573333110683864810,42680,1573333110644136983,imu,0.0,0.0,0.0,0.0,-0.000439473905652,-0.00175772108968,-0.00286932129028,0.191785508204,-0.0503253021526,9.7231819159
1573333110699842679,42681,1573333110660136983,imu,0.0,0.0,0.0,0.0,0.00202126580673,0.000351509311352,-0.00146398217657,0.189921608124,-0.0495405021191,9.71464721554
1573333110715846567,42682,1573333110676136983,imu,0.0,0.0,0.0,0.0,-0.00105452793405,0.00246073971239,-0.000409977841293,0.188646308069,-0.0447336019135,9.72043511579
1573333110731826175,42683,1573333110692136983,imu,0.0,0.0,0.0,0.0,-0.00281224902374,0.000439473905652,0.00152245070651,0.185212807922,-0.041496301775,9.72563441601
1573333110747855884,42684,1573333110708136983,imu,0.0,0.0,0.0,0.0,-0.00316375833509,-0.00228498505671,0.0012882275209,0.189529208107,-0.0480690020561,9.71857121571
1573333110763833597,42685,1573333110724136983,imu,0.0,0.0,0.0,0.0,-0.00202126580673,-0.000175754655676,0.000644201026911,0.188842508078,-0.0533664022827,9.71984651576
1573333110779835802,42686,1573333110740136983,imu,0.0,0.0,0.0,0.0,0.00193347574536,0.00105452793405,-0.00122975899096,0.189725408115,-0.0516006022072,9.71925791574
1573333110795873484,42687,1573333110756136983,imu,0.0,0.0,0.0,0.0,-0.000263719249976,-8.79645943005e-05,-0.00076131261972,0.18913680809,-0.0451260019302,9.71876741571
1573333110811848271,42688,1573333110772136983,imu,0.0,0.0,0.0,0.0,-0.000439473905652,-0.00210923040104,-0.000175754655676,0.185409007931,-0.0458127019596,9.72112181581
1573333110827867751,42689,1573333110788136983,imu,0.0,0.0,0.0,0.0,-0.00105452793405,0.00140621177833,0.000117111592809,0.181681207771,-0.0492462021065,9.71778641567
1573333110843840774,42690,1573333110804136983,imu,0.0,0.0,0.0,0.0,-0.00246073971239,0.00096673787268,0.00204954014062,0.18727290801,-0.0513063021946,9.71906171573
1573333110859928572,42691,1573333110820136983,imu,0.0,0.0,0.0,0.0,-0.00298800367941,0.00114249252836,0.00339641072438,0.18913680809,-0.0531702022743,9.71513771556
1573333110875856640,42692,1573333110836136983,imu,0.0,0.0,0.0,0.0,-0.000878773278379,0.00131824718403,0.00251798651185,0.189725408115,-0.0546417023373,9.71553011558
1573333110891813426,42693,1573333110852136983,imu,0.0,0.0,0.0,0.0,-0.000703018622703,-0.000175754655676,-0.00152245070651,0.188253908052,-0.0471861020184,9.72269141588
1573333110907804610,42694,1573333110868136983,imu,0.0,0.0,0.0,0.0,0.000703018622703,0.00131824718403,0.000936892742471,0.185997607956,-0.0471861020184,9.71945411574
1573333110923848837,42695,1573333110884136983,imu,0.0,0.0,0.0,0.0,-0.00096673787268,-0.000703018622703,0.0023424063891,0.183348907843,-0.0474804020309,9.72112181581
1573333110939784724,42696,1573333110900136983,imu,0.0,0.0,0.0,0.0,-0.000790983217004,-0.00202126580673,0.00204954014062,0.18678240799,-0.0458127019596,9.72063131579
1573333110955819900,42697,1573333110916136983,imu,0.0,0.0,0.0,0.0,0.000878773278379,0.00114249252836,-0.00163956229932,0.188253908052,-0.0495405021191,9.71906171573
1573333110971908054,42698,1573333110932136983,imu,0.0,0.0,0.0,0.0,-0.00114249252836,0.00219719499534,-0.0023424063891,0.18727290801,-0.0503253021526,9.71759021566
1573333110987796421,42699,1573333110948136983,imu,0.0,0.0,0.0,0.0,-0.000878773278379,-0.000263719249976,0.000292866248485,0.189529208107,-0.0478728020477,9.71817881569
1573333111003927860,42700,1573333110964136983,imu,0.0,0.0,0.0,0.0,0.000615228561328,-0.000703018622703,0.0012882275209,0.188940608082,-0.0503253021526,9.72583061602
1573333111019897149,42701,1573333110980136983,imu,0.0,0.0,0.0,0.0,0.00254870430669,0.000263719249976,5.8643062867e-05,0.186193807964,-0.0486576020813,9.71817881569
1573333111035816994,42702,1573333110996136983,imu,0.0,0.0,0.0,0.0,-0.00123045712266,-0.00158196643401,0.00152245070651,0.18678240799,-0.0484614020729,9.71925791574
1573333111051870397,42703,1573333111012136983,imu,0.0,0.0,0.0,0.0,0.000527263967027,-0.000703018622703,5.8643062867e-05,0.189529208107,-0.0495405021191,9.71965031575
1573333111067812739,42704,1573333111028136983,imu,0.0,0.0,0.0,0.0,0.00254870430669,-0.000439473905652,0.000351334778426,0.184329907885,-0.0454203019428,9.71670731563
1573333111083836619,42705,1573333111044136983,imu,0.0,0.0,0.0,0.0,0.00210923040104,-0.000615228561328,-0.000702669556853,0.186390007973,-0.04698990201,9.71876741571
1573333111099826079,42706,1573333111060136983,imu,0.0,0.0,0.0,0.0,0.0,-0.00140621177833,0.00105400433528,0.189921608124,-0.0501291021442,9.71817881569
1573333111115832534,42707,1573333111076136983,imu,0.0,0.0,0.0,0.0,0.000878773278379,0.00105452793405,0.00216665173343,0.184526107893,-0.0456165019512,9.72190661585
1573333111131919475,42708,1573333111092136983,imu,0.0,0.0,0.0,0.0,0.00421846080207,0.00105452793405,-0.00105400433528,0.185016607914,-0.0473823020267,9.72416291595
1573333111147841350,42709,1573333111108136983,imu,0.0,0.0,0.0,0.0,0.000790983217004,-0.00175772108968,-0.000644201026911,0.185997607956,-0.0420849018002,9.72092561581
1573333111163875238,42710,1573333111124136983,imu,0.0,0.0,0.0,0.0,0.00105452793405,0.0,-0.000819781149662,0.184820407906,-0.0420849018002,9.72377051593
1573333111179867234,42711,1573333111140136983,imu,0.0,0.0,0.0,0.0,-0.000878773278379,0.000175754655676,-0.00175667389213,0.183741307859,-0.0454203019428,9.72151421583
1573333111195855447,42712,1573333111156136983,imu,0.0,0.0,0.0,0.0,0.000263719249976,-0.00237294965101,-0.00228376332623,0.184526107893,-0.0458127019596,9.72112181581
1573333111211925338,42713,1573333111172136983,imu,0.0,0.0,0.0,0.0,0.000615228561328,-0.000439473905652,-0.00117111592809,0.187076708002,-0.0480690020561,9.71817881569
1573333111227878044,42714,1573333111188136983,imu,0.0,0.0,0.0,0.0,-0.000439473905652,-0.00096673787268,0.000175754655676,0.186880507994,-0.0516006022072,9.71817881569
1573333111243842592,42715,1573333111204136983,imu,0.0,0.0,0.0,0.0,0.00166975649538,0.000439473905652,-0.00216665173343,0.188057708044,-0.0465975019932,9.71906171573
1573333111259902200,42716,1573333111220136983,imu,0.0,0.0,0.0,0.0,-0.000351509311352,0.00114249252836,0.00146398217657,0.188842508078,-0.0517968022156,9.71896361572
1573333111275898045,42717,1573333111236136983,imu,0.0,0.0,0.0,0.0,0.000527263967027,-0.00219719499534,0.000995535805338,0.188940608082,-0.0503253021526,9.71965031575
1573333111291857116,42718,1573333111252136983,imu,0.0,0.0,0.0,0.0,-0.000175754655676,-0.00123045712266,-0.00158109376938,0.187076708002,-0.0474804020309,9.71876741571
1573333111307823388,42719,1573333111268136983,imu,0.0,0.0,0.0,0.0,0.00175772108968,0.00193347574536,-0.00292796435315,0.185605207939,-0.0458127019596,9.72151421583
1573333111323819679,42720,1573333111284136983,imu,0.0,0.0,0.0,0.0,0.000351509311352,0.000615228561328,0.001815316955,0.182466007805,-0.0451260019302,9.71896361572
1573333111339929112,42721,1573333111300136983,imu,0.0,0.0,0.0,0.0,0.00184551115106,0.000878773278379,0.000175754655676,0.187469108019,-0.0467937020016,9.71945411574
1573333111355912794,42722,1573333111316136983,imu,0.0,0.0,0.0,0.0,-8.79645943005e-05,-0.000615228561328,-0.00117111592809,0.186390007973,-0.0490500020981,9.71965031575
1573333111371841595,42723,1573333111332136983,imu,0.0,0.0,0.0,0.0,0.00219719499534,0.00114249252836,-0.00146398217657,0.185016607914,-0.0501291021442,9.71670731563
1573333111387968483,42724,1573333111348136983,imu,0.0,0.0,0.0,0.0,0.000527263967027,-0.000527263967027,0.00222529479629,0.191981708212,-0.0473823020267,9.71425481552
1573333111403893996,42725,1573333111364136983,imu,0.0,0.0,0.0,0.0,-0.000175754655676,0.00096673787268,0.000644201026911,0.188646308069,-0.0486576020813,9.71876741571
1573333111419900155,42726,1573333111380136983,imu,0.0,0.0,0.0,0.0,-0.00114249252836,0.00210923040104,0.00117111592809,0.185801407948,-0.0453222019386,9.72249521587
1573333111435927759,42727,1573333111396136983,imu,0.0,0.0,0.0,0.0,0.00096673787268,-0.00114249252836,0.00193242854781,0.184133707876,-0.0413982017708,9.71857121571
1573333111451807601,42728,1573333111412136983,imu,0.0,0.0,0.0,0.0,8.79645943005e-05,0.000790983217004,0.000234223185618,0.185409007931,-0.0445374019051,9.71906171573
1573333111467867534,42729,1573333111428136983,imu,0.0,0.0,0.0,0.0,-0.000351509311352,0.000615228561328,0.000351334778426,0.187665308027,-0.0480690020561,9.71945411574
1573333111483859521,42730,1573333111444136983,imu,0.0,0.0,0.0,0.0,-0.000878773278379,0.0,0.000644201026911,0.184133707876,-0.0449298019218,9.71896361572
1573333111499837084,42731,1573333111460136983,imu,0.0,0.0,0.0,0.0,0.00228498505671,0.00096673787268,0.000702669556853,0.18678240799,-0.0465975019932,9.72023891578
1573333111515902981,42732,1573333111476136983,imu,0.0,0.0,0.0,0.0,0.00175772108968,0.00123045712266,-0.00286932129028,0.185605207939,-0.0473823020267,9.71651111562
1573333111531892773,42733,1573333111492136983,imu,0.0,0.0,0.0,0.0,0.00228498505671,0.00166975649538,-0.00163956229932,0.187665308027,-0.0492462021065,9.71906171573
1573333111547823352,42734,1573333111508136983,imu,0.0,0.0,0.0,0.0,0.00210923040104,0.00246073971239,0.000117111592809,0.186193807964,-0.0499329021358,9.72475151597
1573333111563919640,42735,1573333111524136983,imu,0.0,0.0,0.0,0.0,-0.000527263967027,-0.000615228561328,-0.000644201026911,0.184329907885,-0.0480690020561,9.71759021566
1573333111579905146,42736,1573333111540136983,imu,0.0,0.0,0.0,0.0,-0.00228498505671,-0.000263719249976,-0.00210818320348,0.187665308027,-0.0484614020729,9.7183750157
1573333111595859531,42737,1573333111556136983,imu,0.0,0.0,0.0,0.0,0.00237294965101,0.00158196643401,0.000644201026911,0.191196908178,-0.0488538020897,9.71631491561
1573333111611867088,42738,1573333111572136983,imu,0.0,0.0,0.0,0.0,-0.00219719499534,0.00149400183971,0.000936892742471,0.185997607956,-0.0474804020309,9.7161187156
1573333111627816607,42739,1573333111588136983,imu,0.0,0.0,0.0,0.0,-0.000263719249976,-0.00149400183971,-0.0023424063891,0.178345807629,-0.0456165019512,9.72416291595
1573333111643813890,42740,1573333111604136983,imu,0.0,0.0,0.0,0.0,0.000615228561328,0.0,0.000585557964044,0.187076708002,-0.0464013019848,9.71739401566
1573333111659852735,42741,1573333111620136983,imu,0.0,0.0,0.0,0.0,-0.00123045712266,0.0,0.00175667389213,0.186390007973,-0.0494424021149,9.71631491561
1573333111675798966,42742,1573333111636136983,imu,0.0,0.0,0.0,0.0,-0.00096673787268,0.00140621177833,0.00140533911371,0.182956507826,-0.0465975019932,9.71945411574
1573333111691823648,42743,1573333111652136983,imu,0.0,0.0,0.0,0.0,0.00114249252836,-0.000703018622703,0.00169820536219,0.188842508078,-0.0517968022156,9.71817881569
1573333111707785079,42744,1573333111668136983,imu,0.0,0.0,0.0,0.0,0.000263719249976,8.79645943005e-05,0.00122975899096,0.187469108019,-0.0513063021946,9.72396671594
1573333111723807290,42745,1573333111684136983,imu,0.0,0.0,0.0,0.0,-0.000703018622703,0.00140621177833,-0.000175754655676,0.190804508162,-0.0484614020729,9.71513771556
1573333111739817148,42746,1573333111700136983,imu,0.0,0.0,0.0,0.0,0.00219719499534,0.00325172292939,0.00210818320348,0.18727290801,-0.0464013019848,9.71533391557
1573333111755803962,42747,1573333111716136983,imu,0.0,0.0,0.0,0.0,0.00123045712266,0.00175772108968,-0.000409977841293,0.182466007805,-0.0492462021065,9.725438216
1573333111771880524,42748,1573333111732136983,imu,0.0,0.0,0.0,0.0,-0.000527263967027,-0.00158196643401,-0.00298643288309,0.188842508078,-0.046008901968,9.71798261568
1573333111787822069,42749,1573333111748136983,imu,0.0,0.0,0.0,0.0,-0.000527263967027,-0.000263719249976,0.000644201026911,0.187076708002,-0.0476766020393,9.71817881569
1573333111803823297,42750,1573333111764136983,imu,0.0,0.0,0.0,0.0,-0.000615228561328,-0.000527263967027,-0.000409977841293,0.184133707876,-0.0471861020184,9.72092561581
1573333111819787664,42751,1573333111780136983,imu,0.0,0.0,0.0,0.0,0.00184551115106,-0.000615228561328,-0.000468446371235,0.187076708002,-0.0447336019135,9.7183750157
1573333111835789639,42752,1573333111796136983,imu,0.0,0.0,0.0,0.0,0.000351509311352,-0.000263719249976,0.000995535805338,0.18678240799,-0.0456165019512,9.71965031575
1573333111851818450,42753,1573333111812136983,imu,0.0,0.0,0.0,0.0,0.000878773278379,-0.000263719249976,-0.00269374116753,0.183152707834,-0.0428697018337,9.72210281586
1573333111867849713,42754,1573333111828136983,imu,0.0,0.0,0.0,0.0,-0.000175754655676,0.00096673787268,0.00204954014062,0.18727290801,-0.0471861020184,9.71690351563
1573333111883898169,42755,1573333111844136983,imu,0.0,0.0,0.0,0.0,0.000351509311352,0.00140621177833,0.00269374116753,0.186880507994,-0.0480690020561,9.72063131579
1573333111899754999,42756,1573333111860136983,imu,0.0,0.0,0.0,0.0,0.000703018622703,0.000351509311352,0.00210818320348,0.18678240799,-0.0501291021442,9.71778641567
1573333111915877046,42757,1573333111876136983,imu,0.0,0.0,0.0,0.0,0.00149400183971,-0.000615228561328,-0.000878424212529,0.187861508036,-0.0523854022408,9.72092561581
1573333111931891494,42758,1573333111892136983,imu,0.0,0.0,0.0,0.0,-0.00184551115106,-0.000790983217004,0.00298643288309,0.187076708002,-0.0480690020561,9.7208275158
1573333111947889609,42759,1573333111908136983,imu,0.0,0.0,0.0,0.0,0.000175754655676,0.000527263967027,-0.00152245070651,0.18678240799,-0.0478728020477,9.71984651576
1573333111963809319,42760,1573333111924136983,imu,0.0,0.0,0.0,0.0,-0.00184551115106,-0.000615228561328,0.0,0.182662207813,-0.0453222019386,9.72092561581
1573333111979819447,42761,1573333111940136983,imu,0.0,0.0,0.0,0.0,-0.000175754655676,-0.000615228561328,0.00111264739815,0.187861508036,-0.0521892022324,9.71719781565
1573333111995825697,42762,1573333111956136983,imu,0.0,0.0,0.0,0.0,0.00369119683504,-0.00272445896236,0.000468446371235,0.190510208149,-0.046008901968,9.71984651576
1573333112011821076,42763,1573333111972136983,imu,0.0,0.0,0.0,0.0,0.00158196643401,-8.79645943005e-05,-5.8643062867e-05,0.18678240799,-0.0482652020645,9.71984651576
1573333112027917539,42764,1573333111988136983,imu,0.0,0.0,0.0,0.0,-0.00131824718403,-0.000439473905652,-0.001815316955,0.183741307859,-0.0441450018883,9.72190661585
1573333112043835970,42765,1573333112004136983,imu,0.0,0.0,0.0,0.0,0.0,0.00210923040104,0.000234223185618,0.182466007805,-0.046008901968,9.71965031575
1573333112059805445,42766,1573333112020136983,imu,0.0,0.0,0.0,0.0,-0.00219719499534,0.00158196643401,0.00199089707775,0.186390007973,-0.0439488018799,9.72269141588
1573333112075810617,42767,1573333112036136983,imu,0.0,0.0,0.0,0.0,0.000175754655676,0.000527263967027,-0.000527089434102,0.186586207981,-0.0462051019764,9.72043511579
1573333112091848975,42768,1573333112052136983,imu,0.0,0.0,0.0,0.0,0.000527263967027,-0.000263719249976,-5.8643062867e-05,0.185212807922,-0.0488538020897,9.71906171573
1573333112107858006,42769,1573333112068136983,imu,0.0,0.0,0.0,0.0,-0.00123045712266,-0.00448218005205,0.000585557964044,0.182466007805,-0.0471861020184,9.72112181581
1573333112123853270,42770,1573333112084136983,imu,0.0,0.0,0.0,0.0,-0.000351509311352,-0.000351509311352,0.0012882275209,0.188646308069,-0.0525816022491,9.71700161564
1573333112139809770,42771,1573333112100136983,imu,0.0,0.0,0.0,0.0,0.00175772108968,-0.00123045712266,0.000234223185618,0.187861508036,-0.0465975019932,9.72396671594
1573333112155805314,42772,1573333112116136983,imu,0.0,0.0,0.0,0.0,0.000703018622703,0.000263719249976,0.00076131261972,0.183152707834,-0.0437526018715,9.72229901587
1573333112171821612,42773,1573333112132136983,imu,0.0,0.0,0.0,0.0,0.00237294965101,0.00131824718403,0.00111264739815,0.189333008099,-0.0467937020016,9.71906171573
1573333112187641749,42774,1573333112148136983,imu,0.0,0.0,0.0,0.0,0.00166975649538,0.00246073971239,-0.000936892742471,0.193845608292,-0.0533664022827,9.71759021566
1573333112203558069,42775,1573333112164136983,imu,0.0,0.0,0.0,0.0,0.000351509311352,0.00140621177833,5.8643062867e-05,0.189333008099,-0.0521892022324,9.72249521587
1573333112219751743,42776,1573333112180136983,imu,0.0,0.0,0.0,0.0,0.000615228561328,0.00290021361804,0.00245951798191,0.190510208149,-0.0513063021946,9.71572631558
1573333112235810226,42777,1573333112196136983,imu,0.0,0.0,0.0,0.0,-0.00210923040104,-0.000175754655676,-0.00281085276034,0.187469108019,-0.0499329021358,9.71965031575
1573333112251822835,42778,1573333112212136983,imu,0.0,0.0,0.0,0.0,-0.000615228561328,0.000439473905652,0.00216665173343,0.180700207729,-0.041496301775,9.7231819159
1573333112267811433,42779,1573333112228136983,imu,0.0,0.0,0.0,0.0,-0.00166975649538,-0.00202126580673,0.00152245070651,0.183937507868,-0.0451260019302,9.71425481552
1573333112283810055,42780,1573333112244136983,imu,0.0,0.0,0.0,0.0,-0.00096673787268,0.00105452793405,0.000175754655676,0.182466007805,-0.0451260019302,9.72112181581
1573333112299857445,42781,1573333112260136983,imu,0.0,0.0,0.0,0.0,-0.00386695149072,0.000878773278379,-0.000117111592809,0.186193807964,-0.0513063021946,9.72004271577
1573333112315895347,42782,1573333112276136983,imu,0.0,0.0,0.0,0.0,-0.00105452793405,-0.000439473905652,-0.000351334778426,0.182956507826,-0.0443412018967,9.7208275158
1573333112331865513,42783,1573333112292136983,imu,0.0,0.0,0.0,0.0,-0.000351509311352,-0.00131824718403,-0.00146398217657,0.187665308027,-0.0503253021526,9.71876741571
1573333112347906493,42784,1573333112308136983,imu,0.0,0.0,0.0,0.0,-0.000527263967027,-0.000790983217004,0.000175754655676,0.185409007931,-0.0443412018967,9.72357431592
1573333112363809338,42785,1573333112324136983,imu,0.0,0.0,0.0,0.0,0.000615228561328,0.00105452793405,0.00257662957472,0.185409007931,-0.0424773018169,9.71778641567
1573333112379821020,42786,1573333112340136983,imu,0.0,0.0,0.0,0.0,-0.00439421545775,0.000351509311352,0.00275220969747,0.18727290801,-0.0478728020477,9.7183750157
1573333112395847356,42787,1573333112356136983,imu,0.0,0.0,0.0,0.0,0.000439473905652,0.000878773278379,-5.8643062867e-05,0.188057708044,-0.0454203019428,9.71798261568
1573333112411851070,42788,1573333112372136983,imu,0.0,0.0,0.0,0.0,0.00377898689642,-0.000790983217004,-0.00163956229932,0.189921608124,-0.0447336019135,9.71798261568
1573333112427754572,42789,1573333112388136983,imu,0.0,0.0,0.0,0.0,-0.00193347574536,0.000175754655676,0.000117111592809,0.184722307901,-0.0428697018337,9.71876741571
1573333112443861920,42790,1573333112404136983,imu,0.0,0.0,0.0,0.0,0.000439473905652,0.00263649436806,0.000351334778426,0.181681207771,-0.041496301775,9.71778641567
1573333112459916405,42791,1573333112420136983,imu,0.0,0.0,0.0,0.0,0.00360323224074,0.00878843091549,0.00286932129028,0.1940418083,-0.0521892022324,9.71553011558
1573333112475828061,42792,1573333112436136983,imu,0.0,0.0,0.0,0.0,0.00333968752369,-0.0310232274542,0.00345487925432,0.183545107851,-0.056505602417,9.72249521587
1573333112491907460,42793,1573333112452136983,imu,0.0,0.0,0.0,0.0,-0.0055367079861,0.00158196643401,0.00357199084713,0.184133707876,-0.0327654014015,9.72229901587
1573333112507875631,42794,1573333112468136983,imu,0.0,0.0,0.0,0.0,0.00114249252836,0.0896420302446,0.0144054240472,0.311761813335,-0.201693608627,9.50078920639
1573333112523895497,42795,1573333112484136983,imu,0.0,0.0,0.0,0.0,0.0130946817789,0.0115128898779,-0.0263511555795,1.27892975471,0.108302404633,9.56975350934
1573333112539784927,42796,1573333112500136983,imu,0.0,0.0,0.0,0.0,0.0101946426938,0.00456997011342,0.0119459060653,1.30355285576,-0.130276805573,9.6717775137
1573333112555794536,42797,1573333112516136983,imu,0.0,0.0,0.0,0.0,0.00272445896236,0.000175754655676,-0.00392332562556,1.10548894729,0.135476105795,9.83962662088
1573333112571799255,42798,1573333112532136983,imu,0.0,0.0,0.0,0.0,0.00351544217937,-0.00307596827371,0.0050359730237,1.18573475072,-0.0583695024967,9.67776161396
1573333112587842850,42799,1573333112548136983,imu,0.0,0.0,0.0,0.0,0.019422372982,0.0256622741238,0.0160449863465,1.06203064543,-0.150975906458,9.77576351815
1573333112603768248,42800,1573333112564136983,imu,0.0,0.0,0.0,0.0,0.0103703973495,0.0105461520052,-0.0155178969124,1.09538464685,0.0557208023834,9.69473291469
1573333112619875440,42801,1573333112580136983,imu,0.0,0.0,0.0,0.0,-0.00755797379284,-0.0101066780995,0.000644201026911,1.12864054828,-0.00784800033569,9.74211521671
1573333112635906036,42802,1573333112596136983,imu,0.0,0.0,0.0,0.0,-0.0123038730949,-0.0277715045248,0.00450905812253,1.23341135276,-0.117720005035,9.81598451987
1573333112651891021,42803,1573333112612136983,imu,0.0,0.0,0.0,0.0,-0.00536095333043,-0.0190708636707,-0.00187378548494,1.15296934932,0.14518800621,9.59614241047
1573333112667835147,42804,1573333112628136983,imu,0.0,0.0,0.0,0.0,-0.0047457247691,0.00105452793405,-0.00772971419123,1.38968465944,-0.132238805656,9.69904931487
1573333112683897842,42805,1573333112644136983,imu,0.0,0.0,0.0,0.0,-0.00096673787268,-0.00281224902374,-0.015108093604,1.16405464979,-0.029528101263,9.64421141253
1573333112699847496,42806,1573333112660136983,imu,0.0,0.0,0.0,0.0,-0.00738221913716,0.0101946426938,0.00169820536219,1.14492514897,-0.0381609016323,9.77429201809
1573333112715825866,42807,1573333112676136983,imu,0.0,0.0,0.0,0.0,-0.00123045712266,0.0516760575589,-0.00720262475713,1.51407546476,-0.156077106676,9.57505090957
1573333112731861994,42808,1573333112692136983,imu,0.0,0.0,0.0,0.0,-0.0456119110728,-0.0211800940717,-0.00638284360747,1.61011536887,0.206598608837,9.58162360985
1573333112747817877,42809,1573333112708136983,imu,0.0,0.0,0.0,0.0,-0.0442058738274,0.00773390298144,-0.00644148667034,1.89951038125,-0.00539550023079,9.56867440929
1573333112763765597,42810,1573333112724136983,imu,0.0,0.0,0.0,0.0,-0.0488636340022,0.0319020007326,-0.00667570985595,1.59863766838,0.0763218032646,9.64205321243
1573333112779850132,42811,1573333112740136983,imu,0.0,0.0,0.0,0.0,-0.0120401538449,0.0157313506799,-0.00199089707775,1.62541896953,-0.306660613117,10.1543314343
1573333112795840905,42812,1573333112756136983,imu,0.0,0.0,0.0,0.0,0.0108096967222,0.00615193654743,-0.00960349967617,1.32945125687,-0.0954513040829,9.82579452029
1573333112811832295,42813,1573333112772136983,imu,0.0,0.0,0.0,0.0,0.0107219066609,-0.000878773278379,-0.0135269998347,1.47110766293,0.113992204876,9.46478650485
1573333112827835713,42814,1573333112788136983,imu,0.0,0.0,0.0,0.0,-0.0106339420666,0.00298800367941,-0.00468463824528,1.5173127649,-0.0707301030254,10.0265071289
1573333112843807107,42815,1573333112804136983,imu,0.0,0.0,0.0,0.0,0.00527298873613,0.00351544217937,-0.00474328130814,1.30139465567,0.00843660036087,9.80195621927
1573333112859861187,42816,1573333112820136983,imu,0.0,0.0,0.0,0.0,0.00764593838714,0.00764593838714,-0.00884236158938,1.29776495551,-0.0241326010323,9.82706982035
1573333112875835102,42817,1573333112836136983,imu,0.0,0.0,0.0,0.0,-0.00913994022684,-0.0321657199826,0.000292866248485,1.32140705652,0.142735506105,9.48371980566
1573333112891851134,42818,1573333112852136983,imu,0.0,0.0,0.0,0.0,-0.00369119683504,-0.0161706500527,0.00931080796061,1.20535475156,-0.168437707205,9.67452431382
1573333112907784906,42819,1573333112868136983,imu,0.0,0.0,0.0,0.0,-0.0128311370619,-0.00571246264178,-0.016981879089,1.14531754899,0.0166770007133,9.96588132628
1573333112923856526,42820,1573333112884136983,imu,0.0,0.0,0.0,0.0,-0.00105452793405,0.0112491706279,-0.0238918121306,1.23959165302,-0.0717111030674,9.48636850577
1573333112939882606,42821,1573333112900136983,imu,0.0,0.0,0.0,0.0,0.037526673313,0.0352416882563,-0.0234818342893,1.14139354882,-0.0359046015358,9.56700670922
1573333112955903314,42822,1573333112916136983,imu,0.0,0.0,0.0,0.0,0.0439421545775,0.0047457247691,-0.0156350085052,1.59530226824,-0.326280613956,9.35962330035
1573333112971840429,42823,1573333112932136983,imu,0.0,0.0,0.0,0.0,-0.0154676314299,-0.0429754167048,-0.0261755754568,1.56950196713,-0.0265851011372,10.3863379443
1573333112987901560,42824,1573333112948136983,imu,0.0,0.0,0.0,0.0,-0.0597612953188,-0.0277715045248,-0.0130585534634,1.32435005665,0.237107710142,8.85950947896
1573333113003852627,42825,1573333112964136983,imu,0.0,0.0,0.0,0.0,-0.0215316033831,0.0481606153795,-0.0278151377561,1.39880795983,-0.289689312391,10.0435765296
1573333113019816759,42826,1573333112980136983,imu,0.0,0.0,0.0,0.0,-0.112316126156,-0.056421782328,-0.0349592939833,1.82338477799,0.117720005035,9.48244450561
1573333113035875009,42827,1573333112996136983,imu,0.0,0.0,0.0,0.0,-0.019422372982,-0.00439421545775,0.00152245070651,1.22369945234,-0.17324460741,9.42947050334
1573333113051907469,42828,1573333113012136983,imu,0.0,0.0,0.0,0.0,-0.0634524921538,0.0379659726857,0.0135854683646,0.768613532877,0.354042915144,10.5057256494
1573333113067902993,42829,1573333113028136983,imu,0.0,0.0,0.0,0.0,0.0476333514125,0.0205648655104,0.0299817894895,1.08263164631,-0.225433809643,10.1361829336
1573333113083884967,42830,1573333113044136983,imu,0.0,0.0,0.0,0.0,0.0353294783176,0.0410419409594,0.0172161022746,1.6505325706,-0.327457814007,9.17333139238
1573333113099879188,42831,1573333113060136983,imu,0.0,0.0,0.0,0.0,0.00834895700984,-0.00386695149072,0.018797196044,0.700335929956,0.0956475040913,9.62066741152
1573333113115858661,42832,1573333113076136983,imu,0.0,0.0,0.0,0.0,0.017049597864,0.0340991957279,-0.0134683567718,1.10970724747,-0.558679523897,10.5509497513
1573333113131832911,42833,1573333113092136983,imu,0.0,0.0,0.0,0.0,-0.0464028942898,0.0836658483529,-0.00316218753876,1.1783772504,0.524050222416,8.59365846759
1573333113147857092,42834,1573333113108136983,imu,0.0,0.0,0.0,0.0,-0.0581795034177,-0.0184556351094,0.0128827988077,0.914782539129,-0.261436511183,9.6762901139
1573333113163883814,42835,1573333113124136983,imu,0.0,0.0,0.0,0.0,0.0395479391197,-0.0575642748564,0.00345487925432,0.491382921019,-0.506686521673,10.6589578559
1573333113179946679,42836,1573333113140136983,imu,0.0,0.0,0.0,0.0,-0.000878773278379,0.00184551115106,-0.0361890529743,1.10529274728,0.212190309076,10.1320627334
1573333113195803714,42837,1573333113156136983,imu,0.0,0.0,0.0,0.0,-0.0459634203842,-0.0495668271579,-0.0107161470743,0.705240930166,0.326673013973,9.34785129985
1573333113211828892,42838,1573333113172136983,imu,0.0,0.0,0.0,0.0,0.0291775417702,-0.0201255661377,-0.00673417838589,1.3278816568,-0.419671817951,9.53630140791
1573333113227818002,42839,1573333113188136983,imu,0.0,0.0,0.0,0.0,-0.0502698457806,-0.0778654211168,-0.0215494057414,0.554559323721,0.258395411053,9.89534742327
1573333113243845831,42840,1573333113204136983,imu,0.0,0.0,0.0,0.0,0.00377898689642,-0.000175754655676,-0.000702669556853,0.43203241848,-0.223079409542,9.14743299128
1573333113259911543,42841,1573333113220136983,imu,0.0,0.0,0.0,0.0,0.00290021361804,-0.0265410474022,-0.011535928224,0.531015322714,-0.326280613956,10.8043420621
1573333113275920919,42842,1573333113236136983,imu,0.0,0.0,0.0,0.0,-0.0482484054409,-0.00580042723608,-0.0172747453375,1.08783094653,0.0979038041878,8.78613067582
1573333113291914374,42843,1573333113252136983,imu,0.0,0.0,0.0,0.0,-0.0224105511944,-0.0616947710641,-0.00193242854781,1.04123344454,0.2220984095,9.68148941412
1573333113307923174,42844,1573333113268136983,imu,0.0,0.0,0.0,0.0,-0.0402509577424,0.0190708636707,0.0111845934456,0.427323618279,-0.185016607914,8.66998027085
1573333113323884109,42845,1573333113284136983,imu,0.0,0.0,0.0,0.0,-0.0285624877418,-0.000790983217004,0.00661706679309,0.445275919046,0.100258204288,12.7794875466
1573333113339850882,42846,1573333113300136983,imu,0.0,0.0,0.0,0.0,0.159685758319,0.000263719249976,0.0291620083399,0.908798438873,-0.42830461832,7.90323063806
1573333113355844182,42847,1573333113316136983,imu,0.0,0.0,0.0,0.0,0.0584430481347,-0.0570368363564,0.0226035846097,0.294692412605,-0.0207972008896,9.60928781103
1573333113371850582,42848,1573333113332136983,imu,0.0,0.0,0.0,0.0,0.0455241210115,-0.0062397266088,0.00931080796061,0.616166126356,-0.537980423012,10.731748059
1573333113387839185,42849,1573333113348136983,imu,0.0,0.0,0.0,0.0,-0.142108896488,-0.0285624877418,-0.00936927649056,0.817663534975,0.360223215408,8.93210348207
1573333113403859181,42850,1573333113364136983,imu,0.0,0.0,0.0,0.0,0.00500944401907,-0.101066955528,-0.00216665173343,0.687779129419,0.0567018024254,10.6323727548
1573333113419876246,42851,1573333113380136983,imu,0.0,0.0,0.0,0.0,0.0450846471058,-0.0233772890671,-0.0120043745952,0.794806233997,-0.577809024715,9.6693250136
1573333113435892062,42852,1573333113396136983,imu,0.0,0.0,0.0,0.0,-0.00246073971239,-0.056685327045,-0.036950365594,0.897909338408,0.393675316839,9.39856900202
1573333113451913622,42853,1573333113412136983,imu,0.0,0.0,0.0,0.0,0.0265410474022,-0.0305837535485,0.0100134775175,0.325397713919,0.216702909269,9.27025419653
1573333113467757436,42854,1573333113428136983,imu,0.0,0.0,0.0,0.0,-0.036471970846,-0.0770746124327,-0.0288693166243,0.485202620754,-0.284784312181,9.86836992211
1573333113483791244,42855,1573333113444136983,imu,0.0,0.0,0.0,0.0,-0.0285624877418,-0.0956182121364,-0.0418692270249,0.672279328756,-0.359634615383,9.52933630761
1573333113499809592,42856,1573333113460136983,imu,0.0,0.0,0.0,0.0,-0.0221468319444,0.0455241210115,-0.0528782403477,0.616362326365,0.0181485007763,9.41338210265
1573333113515816072,42857,1573333113476136983,imu,0.0,0.0,0.0,0.0,-0.0376144633744,0.0355052329733,-0.0259413522712,0.210326408997,-0.0632745027065,10.6123603539
1573333113531782950,42858,1573333113492136983,imu,0.0,0.0,0.0,0.0,-0.0270683113692,0.000878773278379,-0.0384728163005,0.870048937216,-0.262123211212,8.77416247531
1573333113547865721,42859,1573333113508136983,imu,0.0,0.0,0.0,0.0,-0.0100188880381,0.0145008935573,-0.0196169771936,0.672083128748,0.367482615719,11.5829617955
1573333113563754325,42860,1573333113524136983,imu,0.0,0.0,0.0,0.0,0.0860387980039,0.0171373879253,0.00380621403275,0.859061736746,-0.485006420746,8.21097035122
1573333113579812308,42861,1573333113540136983,imu,0.0,0.0,0.0,0.0,0.142021106426,-0.00975516878817,0.00486039290095,0.676399528933,-0.330597014141,9.86748702208
1573333113595792432,42862,1573333113556136983,imu,0.0,0.0,0.0,0.0,0.11240409075,0.0322535100439,-0.0236575889449,0.824236235256,-0.338641214485,9.41789470284
1573333113611799989,42863,1573333113572136983,imu,0.0,0.0,0.0,0.0,-0.021268058666,0.107834120637,-0.0313286600733,0.270167411556,0.576631824665,9.76399151765
1573333113627792176,42864,1573333113588136983,imu,0.0,0.0,0.0,0.0,0.092366489207,0.0378781826243,-0.000175754655676,0.434877318602,-0.362087115488,10.5139660497
1573333113643786799,42865,1573333113604136983,imu,0.0,0.0,0.0,0.0,0.034890004412,0.00342747758507,-0.0305088789236,0.584381724997,0.186880507994,10.1972011362
1573333113659840879,42866,1573333113620136983,imu,0.0,0.0,0.0,0.0,-0.0406904316481,-0.104670187769,-0.0031035444759,0.72917733119,0.0211896009064,8.89207868035
1573333113675856184,42867,1573333113636136983,imu,0.0,0.0,0.0,0.0,-0.0182798804537,-0.0674072337059,-0.00339641072438,0.810894634686,-0.42290911809,9.36972760078
1573333113691866428,42868,1573333113652136983,imu,0.0,0.0,0.0,0.0,0.0221468319444,0.0395479391197,-0.0285764503758,0.456753619537,0.0185409007931,9.70454291511
1573333113707920783,42869,1573333113668136983,imu,0.0,0.0,0.0,0.0,-0.0392842198697,-0.0048336893634,-0.0247702363431,0.25319611083,-0.0589581025219,9.73927031659
1573333113723874767,42870,1573333113684136983,imu,0.0,0.0,0.0,0.0,-0.0062397266088,0.0805898800791,-0.0398781554142,0.542198723192,-0.326869213982,9.43584700361
1573333113739838403,42871,1573333113700136983,imu,0.0,0.0,0.0,0.0,0.0153798413686,0.0966727400704,-0.0536980214973,0.683168429222,-0.106046104536,8.45465076164
1573333113755863556,42872,1573333113716136983,imu,0.0,0.0,0.0,0.0,0.00421846080207,-0.000263719249976,-0.011535928224,0.311565613327,0.793530933943,12.7310261446
1573333113771832805,42873,1573333113732136983,imu,0.0,0.0,0.0,0.0,0.0428876266434,-0.0841053222585,-0.00690993304157,0.217389609299,-0.485006420746,7.88243343717
1573333113787814873,42874,1573333113748136983,imu,0.0,0.0,0.0,0.0,0.00922790482114,-0.0214438133217,-0.0280493609417,0.392890516806,-0.415355417767,10.1090092324
1573333113803896316,42875,1573333113764136983,imu,0.0,0.0,0.0,0.0,-0.0439421545775,0.0757563652487,-0.0322070842858,0.509139021778,0.0474804020309,9.40180630216
1573333113819895615,42876,1573333113780136983,imu,0.0,0.0,0.0,0.0,0.00421846080207,0.110294860349,-0.00222529479629,0.421143318014,0.0612144026184,10.8206266628
1573333113835899940,42877,1573333113796136983,imu,0.0,0.0,0.0,0.0,0.0290017871145,-0.0280350492419,-0.00620726348472,0.449396119223,-0.241718410339,9.12594909036
1573333113851900541,42878,1573333113812136983,imu,0.0,0.0,0.0,0.0,0.0166101239583,-0.00395474155209,-0.018797196044,0.062489702673,0.384159616432,9.96107442608
1573333113867855702,42879,1573333113828136983,imu,0.0,0.0,0.0,0.0,0.0398116583697,0.0281230138362,-0.00380621403275,0.0617049026394,-0.287040612278,9.2906589974
1573333113883846115,42880,1573333113844136983,imu,0.0,0.0,0.0,0.0,0.0431511713605,0.0181920903923,-0.00813969203253,0.246231010532,-0.200025908556,9.4752832053
1573333113899849734,42881,1573333113860136983,imu,0.0,0.0,0.0,0.0,0.0390206751527,0.0121281184392,-0.0614277356886,0.491775321035,-0.775382433167,10.5459466511
1573333113915896376,42882,1573333113876136983,imu,0.0,0.0,0.0,0.0,-0.122422804256,-0.12048932851,-0.064238413916,0.662371228333,0.0121644005203,8.57923776697
1573333113931762708,42883,1573333113892136983,imu,0.0,0.0,0.0,0.0,0.0225863058501,0.0314625268269,-0.0539907132129,0.489519020939,-0.548379023457,9.29850699774
1573333113947796651,42884,1573333113908136983,imu,0.0,0.0,0.0,0.0,-0.00149400183971,0.0282108038975,-0.0500673875873,0.321277513742,-0.311958013344,11.2765954823
1573333113963897584,42885,1573333113924136983,imu,0.0,0.0,0.0,0.0,0.0272440660249,-0.138593628841,-0.0901212976572,0.323926213856,-1.59304596814,9.35344300009
1573333113979807767,42886,1573333113940136983,imu,0.0,0.0,0.0,0.0,0.0857750787539,-0.0301442796429,-0.159102992881,0.0458127019596,-0.710440230389,9.4565461045
1573333113995836573,42887,1573333113956136983,imu,0.0,0.0,0.0,0.0,0.0284745231475,0.0574763102621,-0.147684001717,0.487262720842,-0.275268611774,9.36698080067
1573333114011790376,42888,1573333113972136983,imu,0.0,0.0,0.0,0.0,-0.0935089817353,0.00808541229279,-0.134976957565,0.353454315119,-0.306660613117,10.5323107505
1573333114027841710,42889,1573333113988136983,imu,0.0,0.0,0.0,0.0,0.0623099996254,-0.0123038730949,-0.204661322346,0.06101820261,-1.80396097716,10.0908607316
1573333114043836573,42890,1573333114004136983,imu,0.0,0.0,0.0,0.0,0.00456997011342,0.13595695994,-0.310417628509,1.01974954362,0.0759294032478,9.29026659739
1573333114059847037,42891,1573333114020136983,imu,0.0,0.0,0.0,0.0,-0.0998364984055,-0.0295290510816,-0.253908928784,0.872109037304,-1.18887395085,8.12719294764
1573333114075848150,42892,1573333114036136983,imu,0.0,0.0,0.0,0.0,-0.0481606153795,-0.111613107533,-0.402120019935,-0.119583905115,-3.79951126252,10.7156596584
1573333114091884914,42893,1573333114052136983,imu,0.0,0.0,0.0,0.0,-0.0346264596949,0.0341869857893,-0.527668883414,0.116150404968,-2.64595331318,10.2334981377
1573333114107896060,42894,1573333114068136983,imu,0.0,0.0,0.0,0.0,-0.105812680297,0.0674951983002,-0.684312358313,0.263104211254,-2.36097280099,8.49241926326
1573333114123788617,42895,1573333114084136983,imu,0.0,0.0,0.0,0.0,-0.0414814148651,0.0853356048482,-0.739298781865,0.0258003011036,-2.19204459376,9.70974221533
1573333114139887300,42896,1573333114100136983,imu,0.0,0.0,0.0,0.0,0.100979165467,-0.0270683113692,-0.844352243937,-0.234066610012,-2.6627284139,11.8418477065
1573333114155869228,42897,1573333114116136983,imu,0.0,0.0,0.0,0.0,-0.0164343693026,-0.156258280734,-0.899162912833,0.0602334025764,-1.99064528515,9.62105981153
1573333114171850054,42898,1573333114132136983,imu,0.0,0.0,0.0,0.0,0.128574740803,-0.00307596827371,-0.946770782438,0.0773028033066,-2.42699410381,8.3132886556
1573333114187841304,42899,1573333114148136983,imu,0.0,0.0,0.0,0.0,0.0106339420666,0.00456997011342,-1.053639736,-0.329125514078,-2.72884781672,8.51821956436
1573333114203871624,42900,1573333114164136983,imu,0.0,0.0,0.0,0.0,0.126289755746,-0.0414814148651,-1.12168453848,-0.457146019554,-1.9124595818,11.1532837771
1573333114219798024,42901,1573333114180136983,imu,0.0,0.0,0.0,0.0,0.0479848607239,-0.0315504914212,-1.15922028751,-0.277524911871,-2.13887439149,10.4156698455
1573333114235909481,42902,1573333114196136983,imu,0.0,0.0,0.0,0.0,-0.0486878793466,-0.037262954063,-1.21531918392,-0.276740111837,-1.04653084476,9.79469681896
1573333114251859195,42903,1573333114212136983,imu,0.0,0.0,0.0,0.0,-0.130068742643,-0.0624857542811,-1.21198141626,-0.193453208275,-1.22723105249,8.20027745076
1573333114267822866,42904,1573333114228136983,imu,0.0,0.0,0.0,0.0,-0.122071294944,-0.298718861065,-1.21215699638,-0.582812124929,-3.51884715052,9.54434560825
1573333114283783174,42905,1573333114244136983,imu,0.0,0.0,0.0,0.0,-0.072152958475,-0.0509728644033,-1.37020598493,-0.687484829407,-3.14832343467,9.32970279907
1573333114299846766,42906,1573333114260136983,imu,0.0,0.0,0.0,0.0,-0.102385202712,0.0777776310554,-1.47994425978,-0.957848440971,-3.17638003587,10.216624937
1573333114315845087,42907,1573333114276136983,imu,0.0,0.0,0.0,0.0,0.100539691561,0.00254870430669,-1.48890373296,-0.760078832512,-2.32938459964,10.5549718515
1573333114331799276,42908,1573333114292136983,imu,0.0,0.0,0.0,0.0,0.0440301191718,0.0427996620491,-1.5392051692,-0.528366622601,-2.29063509798,9.43810330371
1573333114347837600,42909,1573333114308136983,imu,0.0,0.0,0.0,0.0,0.0573005556064,0.0056246725804,-1.53879536589,-0.622542626629,-1.16572234986,8.14573384843
1573333114363836267,42910,1573333114324136983,imu,0.0,0.0,0.0,0.0,0.10141846484,0.038581201247,-1.52292595967,-0.579476724787,-1.45197816211,12.0189182141
1573333114379812001,42911,1573333114340136983,imu,0.0,0.0,0.0,0.0,0.0858630433482,-0.126904984308,-1.46665148313,-0.53817662302,-1.0801791462,9.26780169642
1573333114395895007,42912,1573333114356136983,imu,0.0,0.0,0.0,0.0,0.0793595974894,0.00571246264178,-1.50717383957,-0.898301738424,-2.39354200238,9.81039281963
1573333114411866366,42913,1573333114372136983,imu,0.0,0.0,0.0,0.0,0.0302322442372,-0.0826991104802,-1.53703851747,-0.280860312014,-0.603805525827,9.13958499094
1573333114427898666,42914,1573333114388136983,imu,0.0,0.0,0.0,0.0,-0.0209165493547,0.0174011071753,-1.48749821932,-0.21719340929,-1.26509765411,9.15792969172
1573333114443864647,42915,1573333114404136983,imu,0.0,0.0,0.0,0.0,-0.0714499398523,0.0244318170011,-1.50734959423,-0.0787743033695,-1.35672305803,10.7852125613
1573333114459873843,42916,1573333114420136983,imu,0.0,0.0,0.0,0.0,0.0338354764779,0.141317913271,-1.46671012619,-0.10800810462,-1.31316665617,8.99400458471
1573333114475846069,42917,1573333114436136983,imu,0.0,0.0,0.0,0.0,0.0282987684918,-0.00966720419387,-1.5230432458,-0.69925682991,-2.35518490074,10.1367715336
1573333114491854022,42918,1573333114452136983,imu,0.0,0.0,0.0,0.0,0.14333935361,-0.018104125798,-1.54535396416,-0.844837236137,-1.47669936316,9.09975638924
1573333114507931030,42919,1573333114468136983,imu,0.0,0.0,0.0,0.0,0.040954150898,-0.0554550444553,-1.53692140588,-0.881820937719,-1.5359517657,10.9342264677
1573333114523892847,42920,1573333114484136983,imu,0.0,0.0,0.0,0.0,-0.0984304611601,-0.021268058666,-1.54125470934,-0.754094732256,-0.694155629692,8.13033214777
1573333114539863098,42921,1573333114500136983,imu,0.0,0.0,0.0,0.0,0.0344507050393,0.00747018373146,-1.4660072821,-0.755173832302,-0.985316442146,12.204719622
1573333114555897252,42922,1573333114516136983,imu,0.0,0.0,0.0,0.0,0.0438541899832,-0.094212000358,-1.4422327561,-0.410548517561,-0.90732693881,8.28209285426
1573333114571888833,42923,1573333114532136983,imu,0.0,0.0,0.0,0.0,0.0370871994073,-0.0536973233656,-1.41002567181,-0.514338322001,-1.51427166477,9.89348352319
1573333114587851622,42924,1573333114548136983,imu,0.0,0.0,0.0,0.0,-0.0509728644033,-0.155731016766,-1.45780912154,-0.537391822987,-2.03429978702,9.77988371833
1573333114603884082,42925,1573333114564136983,imu,0.0,0.0,0.0,0.0,-0.0464908588841,-0.0618705257198,-1.49077751845,-0.614890826302,-1.28285375487,10.4611882475
1573333114619857926,42926,1573333114580136983,imu,0.0,0.0,0.0,0.0,0.0112491706279,-0.1222470496,-1.47830452295,-0.544160723276,-0.799122634182,8.66527147065
1573333114635848399,42927,1573333114596136983,imu,0.0,0.0,0.0,0.0,0.0267168020578,-0.0573005556064,-1.44633183638,-0.55102772357,-1.26676535419,8.9633973834
1573333114651868641,42928,1573333114612136983,imu,0.0,0.0,0.0,0.0,0.0440301191718,0.0502698457806,-1.42443092133,-0.572904024506,-1.28530625498,10.9222582672
1573333114667858066,42929,1573333114628136983,imu,0.0,0.0,0.0,0.0,0.0504456004362,-0.00131824718403,-1.39942663633,-0.4862817208,-0.952158640728,10.2778393396
1573333114683836436,42930,1573333114644136983,imu,0.0,0.0,0.0,0.0,-0.0179283711423,-0.0501818811863,-1.3977868995,-0.20620620882,-1.04309734462,9.5781901097
1573333114699748348,42931,1573333114660136983,imu,0.0,0.0,0.0,0.0,-0.101242710184,-0.0498303718749,-1.40182751125,-0.23985451026,-0.991496742411,7.50818192116
1573333114715894415,42932,1573333114676136983,imu,0.0,0.0,0.0,0.0,0.0647707393378,0.0623977896868,-1.43549840318,-0.710636430397,-1.40871606026,11.0763733738
1573333114731894731,42933,1573333114692136983,imu,0.0,0.0,0.0,0.0,0.111437352878,-0.0763714192771,-1.43216063552,-0.757430132399,-1.63719097003,10.661606556
1573333114747815829,42934,1573333114708136983,imu,0.0,0.0,0.0,0.0,0.00448218005205,-0.0421844334878,-1.42958400594,-0.453025819378,-0.852292836456,9.59035451022
1573333114763811403,42935,1573333114724136983,imu,0.0,0.0,0.0,0.0,-0.0395479391197,-0.0884995377163,-1.37032309652,-0.454889719458,-0.42712741827,9.53031730765
1573333114779805720,42936,1573333114740136983,imu,0.0,0.0,0.0,0.0,0.00210923040104,-0.0655617225548,-1.3299763202,-0.252411310797,-1.145513749,9.61527191129
1573333114795873808,42937,1573333114756136983,imu,0.0,0.0,0.0,0.0,0.000703018622703,-0.0169616332697,-1.34666550758,-0.267028211422,-1.27294565445,9.75182711713
1573333114811874048,42938,1573333114772136983,imu,0.0,0.0,0.0,0.0,-0.0616947710641,-0.0935967717967,-1.39046716315,-0.569176224346,-1.72891447395,10.6276639546
1573333114827860843,42939,1573333114788136983,imu,0.0,0.0,0.0,0.0,-0.0123038730949,0.00123045712266,-1.41394899744,-0.482553920641,-0.90428583868,8.08353844577
1573333114843904137,42940,1573333114804136983,imu,0.0,0.0,0.0,0.0,0.00966720419387,-0.0101066780995,-1.38601674809,-0.663450328379,-0.889865138063,10.9790581696
1573333114859881776,42941,1573333114820136983,imu,0.0,0.0,0.0,0.0,0.0384054465914,-0.0986062158158,-1.36083670844,-0.462345319777,-1.01602174346,10.1801317354
1573333114875779745,42942,1573333114836136983,imu,0.0,0.0,0.0,0.0,0.0598492599131,-0.0618705257198,-1.34215644945,-0.17814960762,-0.418592717905,9.29154189744
1573333114891825801,42943,1573333114852136983,imu,0.0,0.0,0.0,0.0,0.0262773281522,-0.0939482811081,-1.29560275872,-0.204734708757,-0.871912837296,8.98056488414
1573333114907813047,42944,1573333114868136983,imu,0.0,0.0,0.0,0.0,0.0586188027904,-0.0672314790502,-1.29039103104,-0.298027812748,-1.39449155965,11.1246385758
1573333114923853044,42945,1573333114884136983,imu,0.0,0.0,0.0,0.0,0.0592340313517,-0.0881480284049,-1.29706656636,-0.281645112047,-0.842973336058,8.83292437782
1573333114939785403,42946,1573333114900136983,imu,0.0,0.0,0.0,0.0,0.0631887729038,-0.0365599354403,-1.30889536083,-0.25506001091,-1.07625514604,9.99491892753
1573333114955884697,42947,1573333114916136983,imu,0.0,0.0,0.0,0.0,-0.0526426208987,-0.0785686142724,-1.34397176641,-0.459500419655,-0.949215640602,9.53159260771
1573333114971892235,42948,1573333114932136983,imu,0.0,0.0,0.0,0.0,-0.0426239073934,-0.0215316033831,-1.32915653905,-0.372681915941,-0.744873331861,9.86071812179
1573333114987877816,42949,1573333114948136983,imu,0.0,0.0,0.0,0.0,-0.0644192300265,-0.0455241210115,-1.32072415531,-0.17814960762,-1.08449554639,9.39915760204
1573333115003863092,42950,1573333114964136983,imu,0.0,0.0,0.0,0.0,-0.156258280734,-0.0203891108547,-1.30626026273,-0.129884405556,-0.575945124636,9.24308049537
1573333115019894951,42951,1573333114980136983,imu,0.0,0.0,0.0,0.0,-0.0939482811081,-0.111437352878,-1.26948565179,-0.143520306139,-0.69925682991,10.1025346321
1573333115035827866,42952,1573333114996136983,imu,0.0,0.0,0.0,0.0,-0.055103535144,0.0236408337841,-1.28974683001,-0.414080117712,-1.7837523763,9.24818169559
1573333115051859544,42953,1573333115012136983,imu,0.0,0.0,0.0,0.0,-0.0769866478384,-0.104406643052,-1.3056160617,-0.574277424564,-0.950687140665,11.0173171713
1573333115067897617,42954,1573333115028136983,imu,0.0,0.0,0.0,0.0,-0.0422723980821,-0.0628372635925,-1.30180984767,-0.340505114565,-1.09067584665,9.05992778753
1573333115083805138,42955,1573333115044136983,imu,0.0,0.0,0.0,0.0,-0.0108976613165,0.0369114447517,-1.30380091928,-0.233674209995,-0.587128525114,9.69757781481
1573333115099825776,42956,1573333115060136983,imu,0.0,0.0,0.0,0.0,0.0518518122146,-0.0840173576642,-1.27856223657,-0.152839806538,-0.994341642532,9.09436088901
1573333115115862711,42957,1573333115076136983,imu,0.0,0.0,0.0,0.0,0.0623977896868,-0.0482484054409,-1.22937327319,-0.23916781023,-0.202086008644,11.4910420915
1573333115131896359,42958,1573333115092136983,imu,0.0,0.0,0.0,0.0,0.0633645275595,-0.0819960918575,-1.20431034513,-0.087014703722,-0.549556223507,8.74983367427
1573333115147897426,42959,1573333115108136983,imu,0.0,0.0,0.0,0.0,0.110910088911,-0.0159071053356,-1.18820671572,-0.193453208275,-1.36476725838,10.0594687303
1573333115163882457,42960,1573333115124136983,imu,0.0,0.0,0.0,0.0,0.0605522785358,-0.0781291403668,-1.2308957239,-0.350413214989,-1.58892576797,9.22640349465
1573333115179891914,42961,1573333115140136983,imu,0.0,0.0,0.0,0.0,0.038844920497,-0.0248712909068,-1.221643559,-0.34413481472,-0.36189091548,9.56828200928
1573333115195896644,42962,1573333115156136983,imu,0.0,0.0,0.0,0.0,0.0177526164867,-0.0278592945862,-1.2373956791,-0.232791309958,-0.909583238907,9.89122722309
1573333115211867723,42963,1573333115172136983,imu,0.0,0.0,0.0,0.0,-0.112931354717,0.00852471166552,-1.22146780434,-0.0731826031303,-0.138811505938,9.23130849486
1573333115227804908,42964,1573333115188136983,imu,0.0,0.0,0.0,0.0,-0.130683971204,-0.0242560623454,-1.20237791658,-0.0338445014477,-0.751838432159,9.57750340967
1573333115243826492,42965,1573333115204136983,imu,0.0,0.0,0.0,0.0,-0.129892987987,0.00676716510876,-1.2383912149,-0.42526351819,-1.33298285702,10.3230634416
1573333115259896399,42966,1573333115220136983,imu,0.0,0.0,0.0,0.0,0.00413049620777,-0.11539209443,-1.20618413062,-0.277524911871,-0.404760617313,10.3187470414
1573333115275900744,42967,1573333115236136983,imu,0.0,0.0,0.0,0.0,0.0574763102621,-0.0233772890671,-1.15652672087,-0.124096505308,-0.571824924459,9.28722549726
1573333115291828823,42968,1573333115252136983,imu,0.0,0.0,0.0,0.0,0.00764593838714,-0.0214438133217,-1.13421600251,-0.226218609676,-0.687288629398,10.0685920307
1573333115307838961,42969,1573333115268136983,imu,0.0,0.0,0.0,0.0,-0.0269805213078,0.0391964298084,-1.09568454315,0.135672305803,0.101435404339,8.67596437111
1573333115323854181,42970,1573333115284136983,imu,0.0,0.0,0.0,0.0,0.0779533857111,-0.0313747367656,-1.06950896769,-0.101631604347,-0.4301685184,11.1445528767
1573333115339811392,42971,1573333115300136983,imu,0.0,0.0,0.0,0.0,0.0709226758853,-0.0300564895815,-1.08514415073,-0.103299304419,-0.884077237816,9.3701200008
1573333115355883288,42972,1573333115316136983,imu,0.0,0.0,0.0,0.0,0.0898177849003,0.0800626161121,-1.1062251101,0.071514903059,-0.473038220234,9.44820760414
1573333115371795521,42973,1573333115332136983,imu,0.0,0.0,0.0,0.0,0.0623099996254,-0.00131824718403,-1.07905399884,0.035021701498,-0.38994751668,10.3288513418
1573333115387811297,42974,1573333115348136983,imu,0.0,0.0,0.0,0.0,0.0281230138362,-0.0357689522233,-1.07290537841,0.096530404129,-0.783230433502,8.29200095469
1573333115403739922,42975,1573333115364136983,imu,0.0,0.0,0.0,0.0,-0.0477211414739,0.0282108038975,-1.08813058361,-0.106438504553,-0.615773726339,10.708400258
1573333115419811517,42976,1573333115380136983,imu,0.0,0.0,0.0,0.0,-0.0289139970532,-0.0501818811863,-1.10165758345,-0.0313920013428,-0.786762033653,8.92386308171
1573333115435906777,42977,1573333115396136983,imu,0.0,0.0,0.0,0.0,0.0383174819971,0.00228498505671,-1.10440979314,0.0509139021778,-0.957456040955,9.87759132251
1573333115451815361,42978,1573333115412136983,imu,0.0,0.0,0.0,0.0,-0.090520803523,-0.055367079861,-1.12613495354,-0.0499329021358,-0.917038839226,9.26868459646
1573333115467825660,42979,1573333115428136983,imu,0.0,0.0,0.0,0.0,-0.00158196643401,0.019949811482,-1.11910790891,-0.139203905954,-0.331578014183,11.7442382024
1573333115483830431,42980,1573333115444136983,imu,0.0,0.0,0.0,0.0,0.0701316926683,0.019422372982,-1.10739622603,-0.0202086008644,-0.809815534639,8.65163557007
1573333115499793947,42981,1573333115460136983,imu,0.0,0.0,0.0,0.0,0.00738221913716,0.0246955362511,-1.10815753865,0.0559170023918,-0.055524602375,10.076341931
1573333115515807663,42982,1573333115476136983,imu,0.0,0.0,0.0,0.0,0.000527263967027,0.0138856649959,-1.0546352718,0.134691305761,0.0393381016827,9.11496188989
1573333115531785121,42983,1573333115492136983,imu,0.0,0.0,0.0,0.0,-0.0219710772887,0.0108096967222,-1.03273435675,0.0404172017288,-0.654327027988,10.1046928322
1573333115547839821,42984,1573333115508136983,imu,0.0,0.0,0.0,0.0,0.0538730780213,-0.0455241210115,-1.04222091937,-0.249762610683,-1.39851365982,10.2883360401
1573333115563904086,42985,1573333115524136983,imu,0.0,0.0,0.0,0.0,-0.00852471166552,-0.055630799111,-1.08731080246,-0.0761256032562,-0.881330437698,9.33588309934
1573333115579868900,42986,1573333115540136983,imu,0.0,0.0,0.0,0.0,0.0449088924501,-0.0203013207933,-1.08783771736,0.0224649009609,-0.315489613495,9.33607929935
1573333115595862069,42987,1573333115556136983,imu,0.0,0.0,0.0,0.0,0.0891147662776,0.0826113204188,-1.07852708393,-0.00107910004616,-0.339033614502,9.36040810039
1573333115611815135,42988,1573333115572136983,imu,0.0,0.0,0.0,0.0,0.020477075449,0.00940365947682,-1.04245514255,0.010496700449,-0.289689312391,10.5285829504
1573333115627878386,42989,1573333115588136983,imu,0.0,0.0,0.0,0.0,-0.108185629948,-0.0887630824333,-1.01827046417,0.312252313356,-0.0303129012966,9.281241397
1573333115643768548,42990,1573333115604136983,imu,0.0,0.0,0.0,0.0,-0.0369114447517,0.0130946817789,-0.990689549604,0.196101908388,-0.384552016449,9.0754275882
1573333115659844368,42991,1573333115620136983,imu,0.0,0.0,0.0,0.0,-0.0767229285884,-0.075053172093,-0.995608411034,0.248683510637,-0.689152529478,10.6750462566
1573333115675779543,42992,1573333115636136983,imu,0.0,0.0,0.0,0.0,-0.0413934502708,0.0767229285884,-0.982374277448,0.460677619705,-0.846504936209,7.66327802779
1573333115691803383,42993,1573333115652136983,imu,0.0,0.0,0.0,0.0,0.016258614647,0.0610795425028,-1.03601365588,-0.056505602417,-0.962655341177,12.4907792343
1573333115707868323,42994,1573333115668136983,imu,0.0,0.0,0.0,0.0,-0.00588821729745,-0.0871812905322,-1.04848665138,0.0422811018085,-0.353454315119,8.92013528155
1573333115723835833,42995,1573333115684136983,imu,0.0,0.0,0.0,0.0,0.0130068917176,-0.109152367821,-0.992446223496,0.132238805656,-0.237303910151,9.51668140707
1573333115739806094,42996,1573333115700136983,imu,0.0,0.0,0.0,0.0,0.0141493842459,0.0155555960242,-0.972829246302,0.177561007595,-0.415355417767,8.79142807605
1573333115755857789,42997,1573333115716136983,imu,0.0,0.0,0.0,0.0,-0.0621342449698,-0.0238165884398,-0.947005005624,0.186390007973,0.0192276008224,11.1464167768
1573333115771880787,42998,1573333115732136983,imu,0.0,0.0,0.0,0.0,0.0137978749346,-0.0506213550919,-0.916847461478,0.157156206722,-0.374742016029,9.01274168551
1573333115787843987,42999,1573333115748136983,imu,0.0,0.0,0.0,0.0,-0.0113371352222,-0.0610795425028,-0.958131130539,0.041496301775,-0.844444836121,10.4830645484
1573333115803762549,43000,1573333115764136983,imu,0.0,0.0,0.0,0.0,-0.0132706109675,-0.0275957498691,-0.969784170356,0.0106929004574,-0.249370210667,8.92425548173
1573333115819785873,43001,1573333115780136983,imu,0.0,0.0,0.0,0.0,-0.0363841807846,0.0354174429119,-0.9609419833,0.0503253021526,-0.27095221159,9.19687539339
1573333115835822352,43002,1573333115796136983,imu,0.0,0.0,0.0,0.0,0.0403389223367,0.0311110175156,-0.946068112881,-0.0614106026268,-0.706123830204,10.3055035408
1573333115851784148,43003,1573333115812136983,imu,0.0,0.0,0.0,0.0,0.0130946817789,-0.0326929839496,-0.960649117051,0.0568980024338,-0.9702090415,9.33941469949
1573333115867789927,43004,1573333115828136983,imu,0.0,0.0,0.0,0.0,-0.0366477255017,-0.0283865585532,-0.965626621545,-0.0529740022659,-0.396127816944,9.63960071233
1573333115883762854,43005,1573333115844136983,imu,0.0,0.0,0.0,0.0,-0.034890004412,-0.0264532573408,-0.916788992949,0.14822910634,0.0299205012798,9.90280302359
1573333115899784870,43006,1573333115860136983,imu,0.0,0.0,0.0,0.0,-0.0597612953188,0.0533458140543,-0.881888167495,0.214446609173,-0.449592319231,9.86689842205
1573333115915833908,43007,1573333115876136983,imu,0.0,0.0,0.0,0.0,-0.0144131034959,-0.124883543968,-0.899221381363,0.222687009525,-0.661782628307,10.2194698371
1573333115931871244,43008,1573333115892136983,imu,0.0,0.0,0.0,0.0,-0.0302322442372,-0.0333960025723,-0.906658403838,0.42830461832,-0.436741218681,8.97811238403
1573333115947844011,43009,1573333115908136983,imu,0.0,0.0,0.0,0.0,-0.0399874130254,-0.0211800940717,-0.927036693652,0.0136359005833,-1.47915186327,9.36492070058
1573333115963849404,43010,1573333115924136983,imu,0.0,0.0,0.0,0.0,-0.0619584903141,0.0526426208987,-0.98770311672,-0.00186390007973,-0.808834534597,9.76664021776
1573333115979789455,43011,1573333115940136983,imu,0.0,0.0,0.0,0.0,-0.00632769120311,0.0137099103403,-0.991450862223,-0.00824040035248,-0.733689931383,10.9501186684
1573333115995789385,43012,1573333115956136983,imu,0.0,0.0,0.0,0.0,-0.0604644884744,-0.223841269095,-1.00544630843,0.0709263030338,-0.88299813777,9.21708399426
1573333116011834730,43013,1573333115972136983,imu,0.0,0.0,0.0,0.0,0.0328687386053,-0.0537852879599,-0.983779616562,0.0160884006882,-1.04162584455,10.0077700281
1573333116027844462,43014,1573333115988136983,imu,0.0,0.0,0.0,0.0,0.00720646448148,0.00878843091549,-0.993910205672,0.0802458034325,-0.630586826973,9.3373545994
1573333116043809166,43015,1573333116004136983,imu,0.0,0.0,0.0,0.0,-0.0177526164867,0.0384934111857,-1.01329295968,-0.0106929004574,-0.775774833183,9.29193429746
1573333116059794743,43016,1573333116020136983,imu,0.0,0.0,0.0,0.0,-0.0252228002181,-0.0581795034177,-1.02845969635,-0.204538508749,-1.10372314721,10.029155829
1573333116075863191,43017,1573333116036136983,imu,0.0,0.0,0.0,0.0,-0.0348022143506,0.0295290510816,-1.07858555246,-0.100846804314,-0.992968242474,9.51050110681
1573333116091792978,43018,1573333116052136983,imu,0.0,0.0,0.0,0.0,-0.127783757586,-0.0145008935573,-1.1007206907,-0.070533903017,-0.89025753808,9.29546589761
1573333116107829212,43019,1573333116068136983,imu,0.0,0.0,0.0,0.0,-0.0538730780213,0.00790965763711,-1.10991421254,-0.10310310441,-0.980803841953,9.68256851417
1573333116123877970,43020,1573333116084136983,imu,0.0,0.0,0.0,0.0,-0.00290021361804,0.0179283711423,-1.09164410593,0.0129492005539,-0.548575223465,11.0713702736
1573333116139888389,43021,1573333116100136983,imu,0.0,0.0,0.0,0.0,0.00325172292939,-0.056685327045,-1.07190984261,0.0548379023457,-0.534154522848,9.66481241341
1573333116155911141,43022,1573333116116136983,imu,0.0,0.0,0.0,0.0,-0.034362740445,-0.0307595082042,-1.07922975349,0.00843660036087,-0.61390982626,9.54414940825
1573333116171939381,43023,1573333116132136983,imu,0.0,0.0,0.0,0.0,-0.0172253525196,0.00290021361804,-1.08520261926,-0.0816192034912,-0.766455332785,8.73600157368
1573333116187842603,43024,1573333116148136983,imu,0.0,0.0,0.0,0.0,-0.00254870430669,0.00764593838714,-1.06295054396,-0.0956475040913,-0.662959828358,9.96931482643
1573333116203822531,43025,1573333116164136983,imu,0.0,0.0,0.0,0.0,0.0618705257198,-0.0938604910467,-1.06997741406,-0.239462110243,-1.42676646103,10.9495300684
1573333116219868292,43026,1573333116180136983,imu,0.0,0.0,0.0,0.0,0.0964090208204,-0.0471938775069,-1.11377906963,-0.12085920517,-1.13236834844,9.14655009124
1573333116235817540,43027,1573333116196136983,imu,0.0,0.0,0.0,0.0,0.11925904592,0.0159071053356,-1.12554939558,-0.10310310441,-0.820508435097,9.83795892081
1573333116251842527,43028,1573333116212136983,imu,0.0,0.0,0.0,0.0,0.0526426208987,-0.0606402431301,-1.14885547521,-0.0608220026016,-0.735357631454,10.4688400478
1573333116267861667,43029,1573333116228136983,imu,0.0,0.0,0.0,0.0,-0.00386695149072,-0.022059041883,-1.14001328815,0.129688205547,-0.284588112173,8.73168517349
1573333116283823594,43030,1573333116244136983,imu,0.0,0.0,0.0,0.0,0.073471205659,0.018631389765,-1.10669355647,0.184526107893,-0.532879222794,9.25975749608
1573333116299862318,43031,1573333116260136983,imu,0.0,0.0,0.0,0.0,-0.0246955362511,0.0754926459987,-1.14223840842,-0.0544455023289,-1.77099937575,9.8867146229
1573333116315908570,43032,1573333116276136983,imu,0.0,0.0,0.0,0.0,-0.0772503670884,-0.037262954063,-1.21116163511,-0.230142609844,-0.833555735655,9.4401634038
1573333116331851117,43033,1573333116292136983,imu,0.0,0.0,0.0,0.0,-0.0302322442372,0.0541367972713,-1.21900846089,-0.270167411556,-0.565840824203,10.1512903342
1573333116347898507,43034,1573333116308136983,imu,0.0,0.0,0.0,0.0,0.0104581874109,-0.0265410474022,-1.19734176903,-0.17697240757,-0.624406526709,10.1307874333
1573333116363890202,43035,1573333116324136983,imu,0.0,0.0,0.0,0.0,0.00316375833509,-0.0487758439409,-1.18527875137,0.0191295008183,-0.435171618614,9.47459650527
1573333116379776329,43036,1573333116340136983,imu,0.0,0.0,0.0,0.0,-0.019422372982,-0.018895109015,-1.16607175202,0.168437707205,-0.287433012295,9.29193429746
1573333116395803998,43037,1573333116356136983,imu,0.0,0.0,0.0,0.0,-0.0457876657285,-0.00984295884955,-1.15541407347,0.00931950039864,-1.01543314343,9.78959561874
1573333116411823528,43038,1573333116372136983,imu,0.0,0.0,0.0,0.0,0.0399874130254,-0.037526673313,-1.15910317591,-0.238383010197,-1.05722374522,10.660625556
1573333116427900150,43039,1573333116388136983,imu,0.0,0.0,0.0,0.0,0.101857938745,0.0248712909068,-1.18422474703,-0.243288010406,-1.32228995656,9.01813718575
1573333116443837170,43040,1573333116404136983,imu,0.0,0.0,0.0,0.0,0.0332202479166,-0.0197740568263,-1.21244986263,-0.419083217926,-1.26352805405,10.1629642347
1573333116459893204,43041,1573333116420136983,imu,0.0,0.0,0.0,0.0,0.0132706109675,-0.0470181228512,-1.23230106301,-0.330204614124,-0.84817263628,9.6296926119
1573333116475867871,43042,1573333116436136983,imu,0.0,0.0,0.0,0.0,-0.0300564895815,-0.0579157841677,-1.23153992492,-0.166573807125,-1.06654324562,8.84420587831
1573333116491783691,43043,1573333116452136983,imu,0.0,0.0,0.0,0.0,-0.0826113204188,-0.0685497262343,-1.26731900006,-0.133416005707,-1.03583794431,9.97922292686
1573333116507812202,43044,1573333116468136983,imu,0.0,0.0,0.0,0.0,-0.0384054465914,0.0176648264253,-1.25519751387,-0.1239003053,-0.905953538752,9.45713470452
1573333116523774014,43045,1573333116484136983,imu,0.0,0.0,0.0,0.0,-0.0551913252053,0.0355052329733,-1.26046771008,-0.14705190629,-0.802850434341,10.4374480465
1573333116539757405,43046,1573333116500136983,imu,0.0,0.0,0.0,0.0,-0.0683739715786,-0.0441179092331,-1.24705782184,-0.298420212765,-0.802850434341,9.76771931781
1573333116555831366,43047,1573333116516136983,imu,0.0,0.0,0.0,0.0,0.0730319062863,-0.00131824718403,-1.23979655402,-0.457636519575,-1.22468045238,10.2213337372
1573333116571866678,43048,1573333116532136983,imu,0.0,0.0,0.0,0.0,0.0165223338969,-0.0108096967222,-1.27194516977,-0.442921518946,-1.20084215137,9.57034210937
1573333116587833130,43049,1573333116548136983,imu,0.0,0.0,0.0,0.0,-0.109679631788,-0.0609037878471,-1.28547216961,-0.234459010029,-0.652070727892,9.25004559566
1573333116603915335,43050,1573333116564136983,imu,0.0,0.0,0.0,0.0,-0.0855113595039,-0.0200376015434,-1.25824241528,-0.140184905996,-0.743401831799,9.77282051803
1573333116619903072,43051,1573333116580136983,imu,0.0,0.0,0.0,0.0,0.0241682722841,-0.180338588423,-1.25519751387,-0.142931706114,-0.683560829239,10.1569801345
1573333116635824219,43052,1573333116596136983,imu,0.0,0.0,0.0,0.0,0.0304079988929,-0.0398116583697,-1.25724705401,-0.13302360569,-0.891434738131,9.95077392564
1573333116651848776,43053,1573333116612136983,imu,0.0,0.0,0.0,0.0,0.0278592945862,0.0418329241764,-1.21988671057,-0.142931706114,-0.700924529982,9.70728971522
1573333116667812673,43054,1573333116628136983,imu,0.0,0.0,0.0,0.0,0.0827870750745,-0.0510608289976,-1.25092267893,-0.338837414494,-1.38065945906,8.82674407756
1573333116683791263,43055,1573333116644136983,imu,0.0,0.0,0.0,0.0,0.0692529193899,-0.036735690096,-1.26626499572,-0.464209219856,-1.21830395211,11.0437060724
1573333116699927072,43056,1573333116660136983,imu,0.0,0.0,0.0,0.0,-0.0445573831388,-0.0427116974548,-1.31480975807,-0.385827316504,-0.900165638504,9.50471320656
1573333116715815509,43057,1573333116676136983,imu,0.0,0.0,0.0,0.0,-0.016258614647,-0.039635903714,-1.28318823175,-0.260847911158,-0.0931950039864,8.49143826322
1573333116731816963,43058,1573333116692136983,imu,0.0,0.0,0.0,0.0,-0.116886096269,0.101857938745,-1.24688224171,0.00206010008812,-1.16778244995,9.3373545994
1573333116747842246,43059,1573333116708136983,imu,0.0,0.0,0.0,0.0,-0.073734924909,-0.0805020900178,-1.26480101355,-0.26908831151,-0.929399439754,11.5361680935
1573333116763852229,43060,1573333116724136983,imu,0.0,0.0,0.0,0.0,0.0695164641069,-0.133671974883,-1.28020179886,-0.247015810566,-0.837479735823,9.84874992127
1573333116779840402,43061,1573333116740136983,imu,0.0,0.0,0.0,0.0,-0.0213558487274,-0.0516760575589,-1.23751279069,-0.00971190041542,-0.837283535814,9.49470700613
1573333116795857922,43062,1573333116756136983,imu,0.0,0.0,0.0,0.0,-0.142021106426,-0.0943877550137,-1.2645081473,-0.0249174010658,-1.01337304335,8.83459207789
1573333116811805135,43063,1573333116772136983,imu,0.0,0.0,0.0,0.0,-0.0253107648124,-0.115567849085,-1.27920626306,-0.360223215408,-0.808147834568,10.98769097
1573333116827824349,43064,1573333116788136983,imu,0.0,0.0,0.0,0.0,0.0711862206023,-0.182799328136,-1.27405317844,-0.32892931407,-1.18514615069,9.58005400978
1573333116843811309,43065,1573333116804136983,imu,0.0,0.0,0.0,0.0,0.0812051086405,0.0206528301047,-1.26070193326,-0.1940418083,-0.85190043644,9.83795892081
1573333116859856443,43066,1573333116820136983,imu,0.0,0.0,0.0,0.0,0.0710104659466,0.0497425818135,-1.23411637997,-0.154213206596,-0.729765931215,9.89063862307
1573333116875821077,43067,1573333116836136983,imu,0.0,0.0,0.0,0.0,0.0763714192771,0.0838416030085,-1.24243165212,-0.1379286059,-0.354925815182,9.15645819166
1573333116891896225,43068,1573333116852136983,imu,0.0,0.0,0.0,0.0,-0.0370871994073,0.0263652927465,-1.21256697422,-0.240443110285,-0.79392333396,9.71494151555
1573333116907846170,43069,1573333116868136983,imu,0.0,0.0,0.0,0.0,-0.109415912538,0.0271562759635,-1.23552189361,-0.113207404842,-0.446453119097,8.70402097231
1573333116923905151,43070,1573333116884136983,imu,0.0,0.0,0.0,0.0,-0.0377024279687,-0.0788321589895,-1.221643559,-0.322552813797,-0.823451435223,10.310604741
1573333116939778463,43071,1573333116900136983,imu,0.0,0.0,0.0,0.0,-0.015994895397,0.0236408337841,-1.23001729968,-0.356397315245,-1.2764772546,10.029548229
1573333116955805736,43072,1573333116916136983,imu,0.0,0.0,0.0,0.0,0.0431511713605,-0.0303200342986,-1.23347235347,-0.299891712828,-0.808540234585,10.8643792647
1573333116971894060,43073,1573333116932136983,imu,0.0,0.0,0.0,0.0,0.0703074473239,-0.0355052329733,-1.21654894291,-0.290376012421,-0.878681737585,9.59545571044
1573333116987879597,43074,1573333116948136983,imu,0.0,0.0,0.0,0.0,-0.0805020900178,-0.0689892001399,-1.22199489378,-0.302148012924,-0.892317638168,8.21342285132
1573333117003899162,43075,1573333116964136983,imu,0.0,0.0,0.0,0.0,-0.175944372966,-0.0233772890671,-1.20741388961,-0.0612144026184,-0.495306921186,9.73593491645
1573333117019840441,43076,1573333116980136983,imu,0.0,0.0,0.0,0.0,-0.0124796277505,-0.0714499398523,-1.20776522439,-0.296752512693,-1.30325855575,11.1119836753
1573333117035831571,43077,1573333116996136983,imu,0.0,0.0,0.0,0.0,-0.0493031079079,-0.056685327045,-1.24284162996,-0.289689312391,-1.00120864283,9.22885599476
1573333117051912152,43078,1573333117012136983,imu,0.0,0.0,0.0,0.0,-0.00492147942477,-0.0363841807846,-1.23470211246,-0.34227091464,-0.702396030045,9.95332452575
1573333117067839850,43079,1573333117028136983,imu,0.0,0.0,0.0,0.0,-0.0172253525196,-0.036999234813,-1.22123358116,-0.210915009022,-0.988357542276,9.8796514226
1573333117083824179,43080,1573333117044136983,imu,0.0,0.0,0.0,0.0,0.0643312654322,-0.0500061265306,-1.20946342975,0.0177561007595,-0.198358208485,8.78936797596
1573333117099865288,43081,1573333117060136983,imu,0.0,0.0,0.0,0.0,0.0600250145687,-0.0333082125109,-1.1354457615,-0.062489702673,-0.612830726213,9.5922184103
1573333117115857806,43082,1573333117076136983,imu,0.0,0.0,0.0,0.0,-0.0261895380908,0.1445696362,-1.1419457167,0.055034102354,-0.979920941916,9.43241350347
1573333117131840376,43083,1573333117092136983,imu,0.0,0.0,0.0,0.0,-0.0609037878471,0.0324292646996,-1.13685110061,-0.0676890028954,-1.06762234567,9.75467201725
1573333117147819728,43084,1573333117108136983,imu,0.0,0.0,0.0,0.0,0.0470181228512,0.0598492599131,-1.14809433712,-0.285569112215,-0.777246333246,9.36943330077
1573333117163808517,43085,1573333117124136983,imu,0.0,0.0,0.0,0.0,0.120665083166,-0.000263719249976,-1.16378798869,-0.664823728437,-1.73597767426,11.5604968945
1573333117179805325,43086,1573333117140136983,imu,0.0,0.0,0.0,0.0,-0.055367079861,-0.12787172218,-1.23821546025,-0.209345408955,-0.481965320616,9.42574270318
1573333117195834923,43087,1573333117156136983,imu,0.0,0.0,0.0,0.0,-0.055103535144,-0.132002218388,-1.18920225153,-0.124096505308,-0.233478009987,8.31466205565
1573333117211658052,43088,1573333117172136983,imu,0.0,0.0,0.0,0.0,-0.0773381571497,-0.000351509311352,-1.17128330516,-0.268892111502,-1.64680477044,9.98108682693
1573333117227734378,43089,1573333117188136983,imu,0.0,0.0,0.0,0.0,0.00571246264178,-0.141405877865,-1.2119227732,-0.508746621761,-0.930282339792,11.4510172898
1573333117243792280,43090,1573333117204136983,imu,0.0,0.0,0.0,0.0,0.0706589566353,-0.0130068917176,-1.18685984514,-0.0858375036716,-0.550831523561,9.06797198788
1573333117259858558,43091,1573333117220136983,imu,0.0,0.0,0.0,0.0,-0.0126553824062,0.0975515133488,-1.19049047905,-0.184820407906,-1.08861574656,8.87559787965
1573333117275823802,43092,1573333117236136983,imu,0.0,0.0,0.0,0.0,-0.00131824718403,-0.0478091060682,-1.20700391177,-0.318628813629,-1.33092275693,9.98520702711
1573333117291827391,43093,1573333117252136983,imu,0.0,0.0,0.0,0.0,0.0147646128072,-0.0123038730949,-1.23036863446,-0.338837414494,-1.01209774329,9.90299922359
1573333117307817463,43094,1573333117268136983,imu,0.0,0.0,0.0,0.0,-0.00694291976443,0.0518518122146,-1.20905345191,-0.261534611187,-0.634707027149,9.16165749188
1573333117323823872,43095,1573333117284136983,imu,0.0,0.0,0.0,0.0,-0.0504456004362,0.00395474155209,-1.22556688462,-0.396520216961,-0.681108329134,8.90532218092
1573333117339924239,43096,1573333117300136983,imu,0.0,0.0,0.0,0.0,0.0055367079861,0.0102824327552,-1.18533739443,-0.117523805027,0.0437526018715,10.9732702694
1573333117355915840,43097,1573333117316136983,imu,0.0,0.0,0.0,0.0,-0.118028588798,0.0152918767743,-1.1424726316,0.130767305593,-0.231417909899,9.33480399929
1573333117371822118,43098,1573333117332136983,imu,0.0,0.0,0.0,0.0,0.0161706500527,0.0161706500527,-1.10628357863,-0.128314805489,-0.939699940195,10.0837975313
1573333117387772043,43099,1573333117348136983,imu,0.0,0.0,0.0,0.0,0.138154154935,0.144306091483,-1.10692777965,-0.167652907171,-1.25980025389,9.41171440258
1573333117403815057,43100,1573333117364136983,imu,0.0,0.0,0.0,0.0,0.0368234801574,0.0730319062863,-1.10973863242,0.0235440010071,-0.067002302866,8.98134968417
1573333117419839714,43101,1573333117380136983,imu,0.0,0.0,0.0,0.0,0.040954150898,0.0307595082042,-1.07214406579,-0.492462021065,-0.778914033318,10.1083225324
1573333117435801947,43102,1573333117396136983,imu,0.0,0.0,0.0,0.0,0.0676709529559,0.00509723408045,-1.1013647172,-0.413491517687,-0.662371228333,11.6071924965
1573333117451885730,43103,1573333117412136983,imu,0.0,0.0,0.0,0.0,0.0901692942116,-0.0192466183264,-1.1143646276,-0.0991791042423,-0.514338322001,8.91719228143
1573333117467797727,43104,1573333117428136983,imu,0.0,0.0,0.0,0.0,0.0539610426156,0.00114249252836,-1.10382423518,0.00804420034409,-0.00186390007973,9.64254371245
1573333117483872800,43105,1573333117444136983,imu,0.0,0.0,0.0,0.0,0.0597612953188,-0.116358832302,-1.04093251731,0.00951570040703,-0.055034102354,9.42476170314
1573333117499852478,43106,1573333117460136983,imu,0.0,0.0,0.0,0.0,-0.0295290510816,-0.0663527057718,-1.01323449115,-0.031980601368,-0.812071834736,9.86375922192
1573333117515836807,43107,1573333117476136983,imu,0.0,0.0,0.0,0.0,-0.0842810769142,-0.105988434953,-1.04532446384,-0.106634704561,-0.616558526373,9.60271511075
1573333117531836230,43108,1573333117492136983,imu,0.0,0.0,0.0,0.0,-0.0503576358419,0.0685497262343,-1.01264893319,-0.113207404842,-0.426833118258,8.83802557804
1573333117548019889,43109,1573333117508136983,imu,0.0,0.0,0.0,0.0,-0.016258614647,0.159510003663,-0.99947326813,-0.197965808468,-0.889865138063,9.83697792077
1573333117563843402,43110,1573333117524136983,imu,0.0,0.0,0.0,0.0,-0.0790958782394,-0.0142371743073,-1.0233064372,-0.237303910151,-0.176776207561,9.65402141294
1573333117579787718,43111,1573333117540136983,imu,0.0,0.0,0.0,0.0,0.0476333514125,-0.0456998756671,-0.944545662175,-0.201105008602,0.71328513051,11.1769258781
1573333117595906763,43112,1573333117556136983,imu,0.0,0.0,0.0,0.0,0.116358832302,0.018367845048,-0.874685542738,0.0362970015526,0.531603922739,8.58404466718
1573333117611800297,43113,1573333117572136983,imu,0.0,0.0,0.0,0.0,0.0146766482129,0.000703018622703,-0.796685905802,0.193649408283,-0.142931706114,11.1022717749
1573333117627890180,43114,1573333117588136983,imu,0.0,0.0,0.0,0.0,0.020477075449,0.0298807349258,-0.800433651305,0.242110810356,-0.196494308405,8.2689474537
1573333117643867603,43115,1573333117604136983,imu,0.0,0.0,0.0,0.0,0.0776018763997,0.0236408337841,-0.769339039884,0.0855432036591,-0.546220823364,9.84580692115
1573333117659865107,43116,1573333117620136983,imu,0.0,0.0,0.0,0.0,0.110031141099,-0.0526426208987,-0.761375102507,-0.015009300642,-0.635982327204,10.9274575674
1573333117675890987,43117,1573333117636136983,imu,0.0,0.0,0.0,0.0,-0.00254870430669,-0.0947392643251,-0.785325557701,-0.116150404968,-0.254667610893,9.66804971354
1573333117691854953,43118,1573333117652136983,imu,0.0,0.0,0.0,0.0,-0.03805393728,-0.0826113204188,-0.776190504396,0.0595467025471,0.327457814007,8.79701977629
1573333117707878423,43119,1573333117668136983,imu,0.0,0.0,0.0,0.0,-0.0347142497563,-0.0558065537667,-0.732974406787,0.180209707708,0.458617519617,10.2791146397
1573333117723824237,43120,1573333117684136983,imu,0.0,0.0,0.0,0.0,-0.057212765545,-0.0589703121018,-0.711073666267,0.150289206429,-0.243091810398,9.71445101553
1573333117739856968,43121,1573333117700136983,imu,0.0,0.0,0.0,0.0,0.00272445896236,0.019422372982,-0.719506050015,-0.0432621018505,-0.726724831085,8.97291308381
1573333117755805434,43122,1573333117716136983,imu,0.0,0.0,0.0,0.0,-0.0776896664611,0.0765471739327,-0.733032875317,0.0969228041458,-0.360517515421,9.4496791042
1573333117771741140,43123,1573333117732136983,imu,0.0,0.0,0.0,0.0,-0.0860387980039,-0.00360323224074,-0.696434019034,0.00431640018463,-0.712500330477,9.26593779634
1573333117787785337,43124,1573333117748136983,imu,0.0,0.0,0.0,0.0,-0.0278592945862,0.0473696321625,-0.693916032522,-0.15009300642,-0.633137427082,10.2104446367
1573333117803775359,43125,1573333117764136983,imu,0.0,0.0,0.0,0.0,0.0506213550919,-0.0484243346295,-0.64935306433,0.0228573009777,-0.262319411221,10.5729241523
1573333117819777194,43126,1573333117780136983,imu,0.0,0.0,0.0,0.0,0.0485121246909,-0.0207406201661,-0.656907198399,0.166181407108,-1.06124584539,9.48430840569
1573333117835842825,43127,1573333117796136983,imu,0.0,0.0,0.0,0.0,0.1121403715,0.0603765238801,-0.68647918458,-0.04698990201,-1.04515744471,9.95724852592
1573333117851807473,43128,1573333117812136983,imu,0.0,0.0,0.0,0.0,0.0354174429119,-0.0422723980821,-0.727177121144,0.124783205338,-0.371995215912,9.09622478909
1573333117867966686,43129,1573333117828136983,imu,0.0,0.0,0.0,0.0,-0.00571246264178,0.00878843091549,-0.701235768872,0.208658708925,-0.513651621971,9.4635112048
1573333117883860065,43130,1573333117844136983,imu,0.0,0.0,0.0,0.0,0.017840581081,-0.0589703121018,-0.710136598992,0.056505602417,-0.725253331022,10.7592160602
1573333117899835734,43131,1573333117860136983,imu,0.0,0.0,0.0,0.0,0.123038032817,0.0208285847604,-0.731569067673,0.00333540014267,-1.01474644341,8.71971697298
1573333117915851405,43132,1573333117876136983,imu,0.0,0.0,0.0,0.0,0.0373509186573,-0.107658365981,-0.771271468432,0.0191295008183,-0.526502722521,10.2089731367
1573333117931839232,43133,1573333117892136983,imu,0.0,0.0,0.0,0.0,0.0110734159722,0.00360323224074,-0.762312169783,-0.100454404297,-0.489813320951,9.24121659529
1573333117947834711,43134,1573333117908136983,imu,0.0,0.0,0.0,0.0,0.0538730780213,0.0445573831388,-0.751186044867,-0.0359046015358,0.135868505812,10.1178382328
1573333117963820503,43135,1573333117924136983,imu,0.0,0.0,0.0,0.0,-0.0201255661377,0.0500940911249,-0.696492487564,0.251136010742,0.251136010742,8.85725317886
1573333117979853550,43136,1573333117940136983,imu,0.0,0.0,0.0,0.0,-0.0798868614564,0.0709226758853,-0.691339402948,0.17814960762,-0.721133130846,10.0444594296
1573333117995823124,43137,1573333117956136983,imu,0.0,0.0,0.0,0.0,-0.0788321589895,0.0193345829207,-0.722550951428,-0.114286504889,-1.08341644634,9.37218010089
1573333118011816644,43138,1573333117972136983,imu,0.0,0.0,0.0,0.0,-0.0395479391197,0.144218126889,-0.734848192272,-0.0940779040241,-0.298616412773,10.426558946
1573333118027872518,43139,1573333117988136983,imu,0.0,0.0,0.0,0.0,-0.015994895397,-0.0645070200879,-0.708614148285,-0.177757207603,-0.968639441433,10.2233938373
1573333118043864294,43140,1573333118004136983,imu,0.0,0.0,0.0,0.0,-0.0165223338969,-0.156258280734,-0.768109455426,-0.262319411221,-0.354042915144,10.0394563294
1573333118059868980,43141,1573333118020136983,imu,0.0,0.0,0.0,0.0,0.0224105511944,-0.0297927703315,-0.719506050015,-0.337562114439,0.784898133574,8.59473756763
1573333118075881429,43142,1573333118036136983,imu,0.0,0.0,0.0,0.0,-0.000351509311352,0.0660889865219,-0.631258537843,0.209149208946,1.41028566032,9.90005622347
1573333118091753343,43143,1573333118052136983,imu,0.0,0.0,0.0,0.0,-0.0119521892506,0.0900815041503,-0.493997991484,0.0437526018715,1.76913547567,10.2442891382
1573333118107806766,43144,1573333118068136983,imu,0.0,0.0,0.0,0.0,0.0865660619709,0.0306715436099,-0.399718970483,-0.0267813011456,0.757037732382,9.89554362328
1573333118123889823,43145,1573333118084136983,imu,0.0,0.0,0.0,0.0,-0.000351509311352,-0.0908723128343,-0.370615605206,-0.0740655031681,0.497857521296,9.27506109674
1573333118139855519,43146,1573333118100136983,imu,0.0,0.0,0.0,0.0,0.0746136981874,0.0517638476203,-0.31375539617,-0.000588600025177,1.36829885853,9.73779881653
1573333118155831433,43147,1573333118116136983,imu,0.0,0.0,0.0,0.0,0.0322535100439,-0.0246955362511,-0.241494401814,-0.0315882013512,1.05545794515,10.2291817375
1573333118171823465,43148,1573333118132136983,imu,0.0,0.0,0.0,0.0,-0.0266290119965,-0.0475453868182,-0.197107362811,-0.0456165019512,0.836989235802,9.05374748727
1573333118187808535,43149,1573333118148136983,imu,0.0,0.0,0.0,0.0,0.0145888581516,-0.00386695149072,-0.181413711242,0.0261927011204,0.0535626022911,9.52698190751
1573333118203856025,43150,1573333118164136983,imu,0.0,0.0,0.0,0.0,-0.0398994484311,0.0412176956151,-0.14329222972,-0.0585657025051,0.761550332575,9.87141102224
1573333118219882265,43151,1573333118180136983,imu,0.0,0.0,0.0,0.0,-0.0645949846822,0.0111613805665,-0.103589654429,-0.020012400856,0.378371716185,9.46645420492
1573333118235821650,43152,1573333118196136983,imu,0.0,0.0,0.0,0.0,-0.0225863058501,0.0855113595039,-0.105287859791,0.0535626022911,0.0488538020897,9.50186830644
1573333118251782971,43153,1573333118212136983,imu,0.0,0.0,0.0,0.0,-0.0210923040104,0.0640677207151,-0.0792293959272,-0.00412020017624,0.135279905787,10.4239102459
1573333118267862269,43154,1573333118228136983,imu,0.0,0.0,0.0,0.0,0.0562460276723,-0.0326929839496,-0.0809860698193,-0.0321768013763,-0.148032906332,10.2722476394
1573333118283824988,43155,1573333118244136983,imu,0.0,0.0,0.0,0.0,-0.00764593838714,-0.110646369661,-0.109211185417,0.0878976037598,-0.135083705778,9.51383650695
1573333118299781894,43156,1573333118260136983,imu,0.0,0.0,0.0,0.0,0.0195103375763,-0.0317262460769,-0.100778801669,-0.0290376012421,-0.508158021736,9.48293500563
1573333118315833678,43157,1573333118276136983,imu,0.0,0.0,0.0,0.0,0.0394599745254,0.0603765238801,-0.164548943746,0.0527778022575,-1.15375414935,9.7862602186
1573333118331876943,43158,1573333118292136983,imu,0.0,0.0,0.0,0.0,-0.0233772890671,-0.0214438133217,-0.198981148296,0.0101043004322,-0.0437526018715,9.59427851039
1573333118347810023,43159,1573333118308136983,imu,0.0,0.0,0.0,0.0,0.111788862189,-0.00834895700984,-0.181999269207,-0.00304110013008,-0.0668061028576,9.96028962605
1573333118363847169,43160,1573333118324136983,imu,0.0,0.0,0.0,0.0,0.0695164641069,0.0133584010289,-0.192715416281,-0.000981000041962,0.0474804020309,10.6189330542
1573333118379822216,43161,1573333118340136983,imu,0.0,0.0,0.0,0.0,0.0229378151614,-0.0349779690063,-0.170814675761,0.106046104536,-0.10683090457,8.21155895124
1573333118395900372,43162,1573333118356136983,imu,0.0,0.0,0.0,0.0,0.0381417273414,0.0298807349258,-0.181999269207,0.1122264048,0.103495504427,10.1524675343
1573333118411829067,43163,1573333118372136983,imu,0.0,0.0,0.0,0.0,-0.0148524028686,-0.0619584903141,-0.21051707652,0.0204048008728,0.349137914934,9.93448932494
1573333118427812043,43164,1573333118388136983,imu,0.0,0.0,0.0,0.0,0.00887639550979,-0.00588821729745,-0.194530733236,0.0723978030968,0.714560430565,9.63567671216
1573333118443759436,43165,1573333118404136983,imu,0.0,0.0,0.0,0.0,0.0249590809681,0.000527263967027,-0.170053363141,0.0465975019932,-0.0600372025681,9.15930309178
1573333118459844513,43166,1573333118420136983,imu,0.0,0.0,0.0,0.0,-0.0705711665739,-0.00456997011342,-0.149499318672,0.0752427032185,0.835615835743,10.1617870347
1573333118475909603,43167,1573333118436136983,imu,0.0,0.0,0.0,0.0,-0.056685327045,0.0495668271579,-0.101305891103,0.0303129012966,0.300284112844,9.27300099665
1573333118491841992,43168,1573333118452136983,imu,0.0,0.0,0.0,0.0,-0.127783757586,-0.0265410474022,-0.094513069654,0.136947605858,0.347274014854,9.17764779257
1573333118507804069,43169,1573333118468136983,imu,0.0,0.0,0.0,0.0,0.0231135698171,0.017840581081,-0.0788780611488,-0.105163204498,0.298812612782,11.5941451959
1573333118523810514,43170,1573333118484136983,imu,0.0,0.0,0.0,0.0,0.0427996620491,0.0282987684918,-0.0826258066516,0.0933912039948,-0.0428697018337,8.79829507634
1573333118539822507,43171,1573333118500136983,imu,0.0,0.0,0.0,0.0,-0.000527263967027,0.0116886445335,-0.0819231370947,0.0993753042507,0.256335310965,9.39484120186
1573333118555914244,43172,1573333118516136983,imu,0.0,0.0,0.0,0.0,0.0723287131307,0.018104125798,-0.0580897934941,-0.0776952033234,0.393086716814,10.3360126421
1573333118571816343,43173,1573333118532136983,imu,0.0,0.0,0.0,0.0,0.0100188880381,0.0252228002181,-0.0446214367223,0.055524602375,0.231417909899,9.61958831147
1573333118587921500,43174,1573333118548136983,imu,0.0,0.0,0.0,0.0,0.0056246725804,-0.0239923430955,-0.0117701514096,-0.0346293014812,1.02259444374,9.86621172202
1573333118603834129,43175,1573333118564136983,imu,0.0,0.0,0.0,0.0,0.0390206751527,0.0137099103403,0.0276395576334,0.0612144026184,0.185605207939,9.23356479496
1573333118619884515,43176,1573333118580136983,imu,0.0,0.0,0.0,0.0,0.0247833263125,-0.0180163357366,0.0252386827143,0.101631604347,-0.32892931407,10.5828322527
1573333118635808815,43177,1573333118596136983,imu,0.0,0.0,0.0,0.0,0.0253107648124,-0.0533458140543,0.00333776766151,0.158137206764,-0.321473713751,8.2431471526
1573333118651883748,43178,1573333118612136983,imu,0.0,0.0,0.0,0.0,-0.00325172292939,0.0263652927465,-0.0131170219934,0.0676890028954,0.213661809139,10.7373397593
1573333118667915692,43179,1573333118628136983,imu,0.0,0.0,0.0,0.0,-0.0670557243945,-0.125586737124,-0.013351245179,0.0548379023457,0.267028211422,9.78174761841
1573333118683904496,43180,1573333118644136983,imu,0.0,0.0,0.0,0.0,-0.0505335650305,-0.147382059757,-0.0410494458752,0.269775011539,-1.35613445801,8.80918417681
1573333118699854365,43181,1573333118660136983,imu,0.0,0.0,0.0,0.0,0.0244318170011,0.0048336893634,-0.132048993212,0.156567606697,-1.59324216815,9.51403270696
1573333118715849559,43182,1573333118676136983,imu,0.0,0.0,0.0,0.0,-0.034890004412,0.0629252281868,-0.161855202579,0.106046104536,-0.346489214821,10.1301988333
1573333118731783712,43183,1573333118692136983,imu,0.0,0.0,0.0,0.0,-0.0391084652141,0.09131178674,-0.170228943264,0.0651384027863,-0.0821097035122,9.61674341135
1573333118747872868,43184,1573333118708136983,imu,0.0,0.0,0.0,0.0,-0.0754046814044,0.073471205659,-0.171048898947,0.116346604977,-0.29900881279,9.07935158836
1573333118763872587,43185,1573333118724136983,imu,0.0,0.0,0.0,0.0,-0.00536095333043,0.0558065537667,-0.194472090173,-0.0675909028912,-0.620482526541,11.7263840016
1573333118779843269,43186,1573333118740136983,imu,0.0,0.0,0.0,0.0,0.0289139970532,-0.00395474155209,-0.208701759565,0.0406134017372,-0.256727710981,8.8767750797
1573333118795886028,43187,1573333118756136983,imu,0.0,0.0,0.0,0.0,-0.00298800367941,-0.0511486190589,-0.199156902951,0.0847584036255,0.454104919424,9.41151820257
1573333118811866889,43188,1573333118772136983,imu,0.0,0.0,0.0,0.0,0.0181920903923,-0.0137978749346,-0.170814675761,-0.0321768013763,-0.162061206932,9.99119112737
1573333118827853618,43189,1573333118788136983,imu,0.0,0.0,0.0,0.0,-0.0377024279687,0.0171373879253,-0.19066587614,0.0711225030422,0.464209219856,9.26593779634
1573333118843837396,43190,1573333118804136983,imu,0.0,0.0,0.0,0.0,0.039635903714,-0.015994895397,-0.144580457241,-0.0725940031052,0.589384825211,10.590680253
1573333118859837170,43191,1573333118820136983,imu,0.0,0.0,0.0,0.0,0.0855113595039,-0.0377024279687,-0.124963480048,0.0746541031933,-0.119583905115,9.30292149793
1573333118875877192,43192,1573333118836136983,imu,0.0,0.0,0.0,0.0,0.0565095723894,-0.0138856649959,-0.127013020188,0.0634707027149,0.166573807125,10.4304829462
1573333118891836889,43193,1573333118852136983,imu,0.0,0.0,0.0,0.0,0.0538730780213,-0.115831568335,-0.121742649446,0.191393108187,0.111147304754,8.34360155689
1573333118907783436,43194,1573333118868136983,imu,0.0,0.0,0.0,0.0,0.0971122139761,0.0961454761034,-0.107747377773,0.0286452012253,0.179817307692,10.1914132359
1573333118923826205,43195,1573333118884136983,imu,0.0,0.0,0.0,0.0,0.0229378151614,-0.0405146769924,-0.125666149605,0.0241326010323,0.138321005917,10.7027104578
1573333118939847614,43196,1573333118900136983,imu,0.0,0.0,0.0,0.0,0.0136221202789,-0.00878843091549,-0.120630176581,0.106438504553,0.177757207603,8.83272817781
1573333118955955889,43197,1573333118916136983,imu,0.0,0.0,0.0,0.0,0.0450846471058,-0.0294412610202,-0.118404881785,0.200908808594,0.0394362016869,8.96634038353
1573333118971829212,43198,1573333118932136983,imu,0.0,0.0,0.0,0.0,-0.0534336041157,0.0738228895033,-0.107805846303,0.0647460027695,0.304992913046,9.93900192513
1573333118987858950,43199,1573333118948136983,imu,0.0,0.0,0.0,0.0,-0.0486000892852,0.0529063401486,-0.0779411684063,0.102906904402,0.688367729445,9.59094311025
1573333119003843154,43200,1573333118964136983,imu,0.0,0.0,0.0,0.0,-0.0757563652487,0.0810293539848,-0.0517069498867,0.0492462021065,0.429579918375,9.74397911679
1573333119019814573,43201,1573333118980136983,imu,0.0,0.0,0.0,0.0,0.0582672934791,-0.0100188880381,-0.00749549100561,-0.0391419016743,0.688563929453,11.5593196944
1573333119035784147,43202,1573333118996136983,imu,0.0,0.0,0.0,0.0,0.00931569488252,-0.0235530437227,-0.00726126782,0.0890748038101,-0.029528101263,8.88256297995
1573333119051774134,43203,1573333119012136983,imu,0.0,0.0,0.0,0.0,-0.022059041883,-0.0768108931827,-0.0279908924118,0.187076708002,0.450769519281,9.25642209594
1573333119067753812,43204,1573333119028136983,imu,0.0,0.0,0.0,0.0,0.0420086788321,0.0433269260161,-0.00404043721837,0.00431640018463,0.423399618111,9.92458122452
1573333119083764963,43205,1573333119044136983,imu,0.0,0.0,0.0,0.0,-0.0765471739327,-0.0271562759635,0.0101305891103,0.0725940031052,0.403779617271,9.75614351731
1573333119099755140,43206,1573333119060136983,imu,0.0,0.0,0.0,0.0,-0.0288260324589,-0.0560702730166,0.0222520752983,-0.0723978030968,0.595761325483,10.4438245467
1573333119115714050,43207,1573333119076136983,imu,0.0,0.0,0.0,0.0,0.0144131034959,-0.0513243737146,0.0334368432768,0.0146169006252,0.130767305593,9.26515299631
1573333119131741008,43208,1573333119092136983,imu,0.0,0.0,0.0,0.0,0.00615193654743,0.0340112311336,0.0306846335793,0.0864261036968,-0.00912330039024,10.0145389284
1573333119147789810,43209,1573333119108136983,imu,0.0,0.0,0.0,0.0,-0.0480726507852,-0.114689075807,0.0416350038392,0.148719606361,0.051993002224,8.84920897852
1573333119163755285,43210,1573333119124136983,imu,0.0,0.0,0.0,0.0,-0.0521153569316,0.0357689522233,0.046670976863,0.336286814384,0.371995215912,10.0854652314
1573333119179790898,43211,1573333119140136983,imu,0.0,0.0,0.0,0.0,-0.0784806496781,0.00430625086345,0.0621304052454,0.546515123377,0.285863412228,10.2100522367
1573333119195876691,43212,1573333119156136983,imu,0.0,0.0,0.0,0.0,0.020477075449,0.0219710772887,0.0508287002071,0.185801407948,-0.0866223037052,8.85431017874
1573333119211881727,43213,1573333119172136983,imu,0.0,0.0,0.0,0.0,0.0440301191718,-0.0142371743073,0.0628330748023,0.142343106089,-0.188450108061,9.21747639427
1573333119227880991,43214,1573333119188136983,imu,0.0,0.0,0.0,0.0,0.0514123383089,0.0583552580734,0.0391170173274,0.071514903059,0.0478728020477,10.4486314469
1573333119243822210,43215,1573333119204136983,imu,0.0,0.0,0.0,0.0,0.00870046632119,0.0156433860856,0.0380628384592,0.103691704435,0.311565613327,9.17686299253
1573333119259800485,43216,1573333119220136983,imu,0.0,0.0,0.0,0.0,-0.0616069810027,0.0870055358765,0.0646483917573,0.211405509043,0.0944703040409,9.72269141588
1573333119275829076,43217,1573333119236136983,imu,0.0,0.0,0.0,0.0,0.037262954063,-0.0101946426938,0.0634772758292,0.298616412773,0.105555604515,11.2553077814
1573333119291822019,43218,1573333119252136983,imu,0.0,0.0,0.0,0.0,0.00114249252836,0.0164343693026,0.0367161424084,0.0926064039612,0.127628105459,8.95927718323
